{
  "name": {
    "namespaceURI": "http://www.cdisc.org/ns/odm/v1.3",
    "localPart": "ODM",
    "prefix": "",
    "key": "{http://www.cdisc.org/ns/odm/v1.3}ODM",
    "string": "{http://www.cdisc.org/ns/odm/v1.3}ODM"
  },
  "value": {
    "TYPE_NAME": "define2_1_0.ODM",
    "fileOID": "CDISCPILOT01",
    "fileType": "Snapshot",
    "creationDateTime": {
      "year": 2012,
      "month": 10,
      "day": 18,
      "hour": 17,
      "minute": 33,
      "second": 4,
      "fractionalSecond": 0,
      "timezone": null,
      "date": "2012-10-18T17:33:04.000Z"
    },
    "odmVersion": "1.3.2",
    "study": [
      {
        "TYPE_NAME": "define2_1_0.ODMcomplexTypeDefinitionStudy",
        "oid": "CDISCPILOT01",
        "globalVariables": {
          "TYPE_NAME": "define2_1_0.ODMcomplexTypeDefinitionGlobalVariables",
          "studyName": {
            "TYPE_NAME": "define2_1_0.ODMcomplexTypeDefinitionStudyName",
            "value": "CDISCPILOT01"
          },
          "studyDescription": {
            "TYPE_NAME": "define2_1_0.ODMcomplexTypeDefinitionStudyDescription",
            "value": "CDISCPILOT01 Data Definition"
          },
          "protocolName": {
            "TYPE_NAME": "define2_1_0.ODMcomplexTypeDefinitionProtocolName",
            "value": "CDISCPILOT01"
          }
        },
        "metaDataVersion": [
          {
            "TYPE_NAME": "define2_1_0.ODMcomplexTypeDefinitionMetaDataVersion",
            "oid": "CDISC.ADaM.2.1",
            "name": "Study CDISCPILOT01, Data Definitions",
            "description": "Study CDISCPILOT01, Data Definitions",
            "itemGroupDef": [
              {
                "TYPE_NAME": "define2_1_0.ODMcomplexTypeDefinitionItemGroupDef",
                "oid": "ADSL",
                "name": "ADSL",
                "repeating": "No",
                "isReferenceData": "No",
                "purpose": "Analysis",
                "comment": " ",
                "description": {
                  "TYPE_NAME": "define2_1_0.ODMcomplexTypeDefinitionDescription",
                  "translatedText": [
                    {
                      "TYPE_NAME": "define2_1_0.ODMcomplexTypeDefinitionTranslatedText",
                      "lang": "en",
                      "value": "Subject-Level Analysis"
                    }
                  ]
                },
                "itemRef": [
                  {
                    "TYPE_NAME": "define2_1_0.ODMcomplexTypeDefinitionItemRef",
                    "itemOID": "ADSL.STUDYID",
                    "orderNumber": 1,
                    "mandatory": "No"
                  },
                  {
                    "TYPE_NAME": "define2_1_0.ODMcomplexTypeDefinitionItemRef",
                    "itemOID": "ADSL.USUBJID",
                    "orderNumber": 2,
                    "mandatory": "No"
                  },
                  {
                    "TYPE_NAME": "define2_1_0.ODMcomplexTypeDefinitionItemRef",
                    "itemOID": "ADSL.SUBJID",
                    "orderNumber": 3,
                    "mandatory": "No"
                  },
                  {
                    "TYPE_NAME": "define2_1_0.ODMcomplexTypeDefinitionItemRef",
                    "itemOID": "ADSL.SITEID",
                    "orderNumber": 4,
                    "mandatory": "No"
                  },
                  {
                    "TYPE_NAME": "define2_1_0.ODMcomplexTypeDefinitionItemRef",
                    "itemOID": "ADSL.SITEGR1",
                    "orderNumber": 5,
                    "mandatory": "No"
                  },
                  {
                    "TYPE_NAME": "define2_1_0.ODMcomplexTypeDefinitionItemRef",
                    "itemOID": "ADSL.ARM",
                    "orderNumber": 6,
                    "mandatory": "No"
                  },
                  {
                    "TYPE_NAME": "define2_1_0.ODMcomplexTypeDefinitionItemRef",
                    "itemOID": "ADSL.TRT01P",
                    "orderNumber": 7,
                    "mandatory": "No"
                  },
                  {
                    "TYPE_NAME": "define2_1_0.ODMcomplexTypeDefinitionItemRef",
                    "itemOID": "ADSL.TRT01PN",
                    "orderNumber": 8,
                    "mandatory": "No"
                  },
                  {
                    "TYPE_NAME": "define2_1_0.ODMcomplexTypeDefinitionItemRef",
                    "itemOID": "ADSL.TRT01A",
                    "orderNumber": 9,
                    "mandatory": "No"
                  },
                  {
                    "TYPE_NAME": "define2_1_0.ODMcomplexTypeDefinitionItemRef",
                    "itemOID": "ADSL.TRT01AN",
                    "orderNumber": 10,
                    "mandatory": "No"
                  },
                  {
                    "TYPE_NAME": "define2_1_0.ODMcomplexTypeDefinitionItemRef",
                    "itemOID": "ADSL.TRTSDT",
                    "orderNumber": 11,
                    "mandatory": "No"
                  },
                  {
                    "TYPE_NAME": "define2_1_0.ODMcomplexTypeDefinitionItemRef",
                    "itemOID": "ADSL.TRTEDT",
                    "orderNumber": 12,
                    "mandatory": "No"
                  },
                  {
                    "TYPE_NAME": "define2_1_0.ODMcomplexTypeDefinitionItemRef",
                    "itemOID": "ADSL.TRTDUR",
                    "orderNumber": 13,
                    "mandatory": "No"
                  },
                  {
                    "TYPE_NAME": "define2_1_0.ODMcomplexTypeDefinitionItemRef",
                    "itemOID": "ADSL.AVGDD",
                    "orderNumber": 14,
                    "mandatory": "No"
                  },
                  {
                    "TYPE_NAME": "define2_1_0.ODMcomplexTypeDefinitionItemRef",
                    "itemOID": "ADSL.CUMDOSE",
                    "orderNumber": 15,
                    "mandatory": "No"
                  },
                  {
                    "TYPE_NAME": "define2_1_0.ODMcomplexTypeDefinitionItemRef",
                    "itemOID": "ADSL.AGE",
                    "orderNumber": 16,
                    "mandatory": "No"
                  },
                  {
                    "TYPE_NAME": "define2_1_0.ODMcomplexTypeDefinitionItemRef",
                    "itemOID": "ADSL.AGEGR1",
                    "orderNumber": 17,
                    "mandatory": "No"
                  },
                  {
                    "TYPE_NAME": "define2_1_0.ODMcomplexTypeDefinitionItemRef",
                    "itemOID": "ADSL.AGEGR1N",
                    "orderNumber": 18,
                    "mandatory": "No"
                  },
                  {
                    "TYPE_NAME": "define2_1_0.ODMcomplexTypeDefinitionItemRef",
                    "itemOID": "ADSL.AGEU",
                    "orderNumber": 19,
                    "mandatory": "No"
                  },
                  {
                    "TYPE_NAME": "define2_1_0.ODMcomplexTypeDefinitionItemRef",
                    "itemOID": "ADSL.RACE",
                    "orderNumber": 20,
                    "mandatory": "No"
                  },
                  {
                    "TYPE_NAME": "define2_1_0.ODMcomplexTypeDefinitionItemRef",
                    "itemOID": "ADSL.RACEN",
                    "orderNumber": 21,
                    "mandatory": "No"
                  },
                  {
                    "TYPE_NAME": "define2_1_0.ODMcomplexTypeDefinitionItemRef",
                    "itemOID": "ADSL.SEX",
                    "orderNumber": 22,
                    "mandatory": "No"
                  },
                  {
                    "TYPE_NAME": "define2_1_0.ODMcomplexTypeDefinitionItemRef",
                    "itemOID": "ADSL.ETHNIC",
                    "orderNumber": 23,
                    "mandatory": "No"
                  },
                  {
                    "TYPE_NAME": "define2_1_0.ODMcomplexTypeDefinitionItemRef",
                    "itemOID": "ADSL.SAFFL",
                    "orderNumber": 24,
                    "mandatory": "No"
                  },
                  {
                    "TYPE_NAME": "define2_1_0.ODMcomplexTypeDefinitionItemRef",
                    "itemOID": "ADSL.ITTFL",
                    "orderNumber": 25,
                    "mandatory": "No"
                  },
                  {
                    "TYPE_NAME": "define2_1_0.ODMcomplexTypeDefinitionItemRef",
                    "itemOID": "ADSL.EFFFL",
                    "orderNumber": 26,
                    "mandatory": "No"
                  },
                  {
                    "TYPE_NAME": "define2_1_0.ODMcomplexTypeDefinitionItemRef",
                    "itemOID": "ADSL.COMP8FL",
                    "orderNumber": 27,
                    "mandatory": "No"
                  },
                  {
                    "TYPE_NAME": "define2_1_0.ODMcomplexTypeDefinitionItemRef",
                    "itemOID": "ADSL.COMP16FL",
                    "orderNumber": 28,
                    "mandatory": "No"
                  },
                  {
                    "TYPE_NAME": "define2_1_0.ODMcomplexTypeDefinitionItemRef",
                    "itemOID": "ADSL.COMP24FL",
                    "orderNumber": 29,
                    "mandatory": "No"
                  },
                  {
                    "TYPE_NAME": "define2_1_0.ODMcomplexTypeDefinitionItemRef",
                    "itemOID": "ADSL.DISCONFL",
                    "orderNumber": 30,
                    "mandatory": "No"
                  },
                  {
                    "TYPE_NAME": "define2_1_0.ODMcomplexTypeDefinitionItemRef",
                    "itemOID": "ADSL.DSRAEFL",
                    "orderNumber": 31,
                    "mandatory": "No"
                  },
                  {
                    "TYPE_NAME": "define2_1_0.ODMcomplexTypeDefinitionItemRef",
                    "itemOID": "ADSL.DTHFL",
                    "orderNumber": 32,
                    "mandatory": "No"
                  },
                  {
                    "TYPE_NAME": "define2_1_0.ODMcomplexTypeDefinitionItemRef",
                    "itemOID": "ADSL.BMIBL",
                    "orderNumber": 33,
                    "mandatory": "No"
                  },
                  {
                    "TYPE_NAME": "define2_1_0.ODMcomplexTypeDefinitionItemRef",
                    "itemOID": "ADSL.BMIBLGR1",
                    "orderNumber": 34,
                    "mandatory": "No"
                  },
                  {
                    "TYPE_NAME": "define2_1_0.ODMcomplexTypeDefinitionItemRef",
                    "itemOID": "ADSL.HEIGHTBL",
                    "orderNumber": 35,
                    "mandatory": "No"
                  },
                  {
                    "TYPE_NAME": "define2_1_0.ODMcomplexTypeDefinitionItemRef",
                    "itemOID": "ADSL.WEIGHTBL",
                    "orderNumber": 36,
                    "mandatory": "No"
                  },
                  {
                    "TYPE_NAME": "define2_1_0.ODMcomplexTypeDefinitionItemRef",
                    "itemOID": "ADSL.EDUCLVL",
                    "orderNumber": 37,
                    "mandatory": "No"
                  },
                  {
                    "TYPE_NAME": "define2_1_0.ODMcomplexTypeDefinitionItemRef",
                    "itemOID": "ADSL.DISONSDT",
                    "orderNumber": 38,
                    "mandatory": "No"
                  },
                  {
                    "TYPE_NAME": "define2_1_0.ODMcomplexTypeDefinitionItemRef",
                    "itemOID": "ADSL.DURDIS",
                    "orderNumber": 39,
                    "mandatory": "No"
                  },
                  {
                    "TYPE_NAME": "define2_1_0.ODMcomplexTypeDefinitionItemRef",
                    "itemOID": "ADSL.DURDSGR1",
                    "orderNumber": 40,
                    "mandatory": "No"
                  },
                  {
                    "TYPE_NAME": "define2_1_0.ODMcomplexTypeDefinitionItemRef",
                    "itemOID": "ADSL.VISIT1DT",
                    "orderNumber": 41,
                    "mandatory": "No"
                  },
                  {
                    "TYPE_NAME": "define2_1_0.ODMcomplexTypeDefinitionItemRef",
                    "itemOID": "ADSL.RFSTDTC",
                    "orderNumber": 42,
                    "mandatory": "No"
                  },
                  {
                    "TYPE_NAME": "define2_1_0.ODMcomplexTypeDefinitionItemRef",
                    "itemOID": "ADSL.RFENDTC",
                    "orderNumber": 43,
                    "mandatory": "No"
                  },
                  {
                    "TYPE_NAME": "define2_1_0.ODMcomplexTypeDefinitionItemRef",
                    "itemOID": "ADSL.VISNUMEN",
                    "orderNumber": 44,
                    "mandatory": "No"
                  },
                  {
                    "TYPE_NAME": "define2_1_0.ODMcomplexTypeDefinitionItemRef",
                    "itemOID": "ADSL.RFENDT",
                    "orderNumber": 45,
                    "mandatory": "No"
                  },
                  {
                    "TYPE_NAME": "define2_1_0.ODMcomplexTypeDefinitionItemRef",
                    "itemOID": "ADSL.DCDECOD",
                    "orderNumber": 46,
                    "mandatory": "No"
                  },
                  {
                    "TYPE_NAME": "define2_1_0.ODMcomplexTypeDefinitionItemRef",
                    "itemOID": "ADSL.DCREASCD",
                    "orderNumber": 47,
                    "mandatory": "No"
                  },
                  {
                    "TYPE_NAME": "define2_1_0.ODMcomplexTypeDefinitionItemRef",
                    "itemOID": "ADSL.MMSETOT",
                    "orderNumber": 48,
                    "mandatory": "No"
                  }
                ]
              },
              {
                "TYPE_NAME": "define2_1_0.ODMcomplexTypeDefinitionItemGroupDef",
                "oid": "ADAE",
                "name": "ADAE",
                "repeating": "Yes",
                "isReferenceData": "No",
                "purpose": "Analysis",
                "comment": "see program ..\\programs\\adae.sas",
                "description": {
                  "TYPE_NAME": "define2_1_0.ODMcomplexTypeDefinitionDescription",
                  "translatedText": [
                    {
                      "TYPE_NAME": "define2_1_0.ODMcomplexTypeDefinitionTranslatedText",
                      "lang": "en",
                      "value": "Adverse Events Analysis Dataset"
                    }
                  ]
                },
                "itemRef": [
                  {
                    "TYPE_NAME": "define2_1_0.ODMcomplexTypeDefinitionItemRef",
                    "itemOID": "ADAE.STUDYID",
                    "orderNumber": 1,
                    "mandatory": "No"
                  },
                  {
                    "TYPE_NAME": "define2_1_0.ODMcomplexTypeDefinitionItemRef",
                    "itemOID": "ADAE.SITEID",
                    "orderNumber": 2,
                    "mandatory": "No"
                  },
                  {
                    "TYPE_NAME": "define2_1_0.ODMcomplexTypeDefinitionItemRef",
                    "itemOID": "ADAE.USUBJID",
                    "orderNumber": 3,
                    "mandatory": "No"
                  },
                  {
                    "TYPE_NAME": "define2_1_0.ODMcomplexTypeDefinitionItemRef",
                    "itemOID": "ADAE.TRTA",
                    "orderNumber": 4,
                    "mandatory": "No"
                  },
                  {
                    "TYPE_NAME": "define2_1_0.ODMcomplexTypeDefinitionItemRef",
                    "itemOID": "ADAE.TRTAN",
                    "orderNumber": 5,
                    "mandatory": "No"
                  },
                  {
                    "TYPE_NAME": "define2_1_0.ODMcomplexTypeDefinitionItemRef",
                    "itemOID": "ADAE.AGE",
                    "orderNumber": 6,
                    "mandatory": "No"
                  },
                  {
                    "TYPE_NAME": "define2_1_0.ODMcomplexTypeDefinitionItemRef",
                    "itemOID": "ADAE.AGEGR1",
                    "orderNumber": 7,
                    "mandatory": "No"
                  },
                  {
                    "TYPE_NAME": "define2_1_0.ODMcomplexTypeDefinitionItemRef",
                    "itemOID": "ADAE.AGEGR1N",
                    "orderNumber": 8,
                    "mandatory": "No"
                  },
                  {
                    "TYPE_NAME": "define2_1_0.ODMcomplexTypeDefinitionItemRef",
                    "itemOID": "ADAE.RACE",
                    "orderNumber": 9,
                    "mandatory": "No"
                  },
                  {
                    "TYPE_NAME": "define2_1_0.ODMcomplexTypeDefinitionItemRef",
                    "itemOID": "ADAE.RACEN",
                    "orderNumber": 10,
                    "mandatory": "No"
                  },
                  {
                    "TYPE_NAME": "define2_1_0.ODMcomplexTypeDefinitionItemRef",
                    "itemOID": "ADAE.SEX",
                    "orderNumber": 11,
                    "mandatory": "No"
                  },
                  {
                    "TYPE_NAME": "define2_1_0.ODMcomplexTypeDefinitionItemRef",
                    "itemOID": "ADAE.SAFFL",
                    "orderNumber": 12,
                    "mandatory": "No"
                  },
                  {
                    "TYPE_NAME": "define2_1_0.ODMcomplexTypeDefinitionItemRef",
                    "itemOID": "ADAE.TRTSDT",
                    "orderNumber": 13,
                    "mandatory": "No"
                  },
                  {
                    "TYPE_NAME": "define2_1_0.ODMcomplexTypeDefinitionItemRef",
                    "itemOID": "ADAE.TRTEDT",
                    "orderNumber": 14,
                    "mandatory": "No"
                  },
                  {
                    "TYPE_NAME": "define2_1_0.ODMcomplexTypeDefinitionItemRef",
                    "itemOID": "ADAE.ASTDT",
                    "orderNumber": 15,
                    "mandatory": "No"
                  },
                  {
                    "TYPE_NAME": "define2_1_0.ODMcomplexTypeDefinitionItemRef",
                    "itemOID": "ADAE.ASTDTF",
                    "orderNumber": 16,
                    "mandatory": "No"
                  },
                  {
                    "TYPE_NAME": "define2_1_0.ODMcomplexTypeDefinitionItemRef",
                    "itemOID": "ADAE.ASTDY",
                    "orderNumber": 17,
                    "mandatory": "No"
                  },
                  {
                    "TYPE_NAME": "define2_1_0.ODMcomplexTypeDefinitionItemRef",
                    "itemOID": "ADAE.AENDT",
                    "orderNumber": 18,
                    "mandatory": "No"
                  },
                  {
                    "TYPE_NAME": "define2_1_0.ODMcomplexTypeDefinitionItemRef",
                    "itemOID": "ADAE.AENDY",
                    "orderNumber": 19,
                    "mandatory": "No"
                  },
                  {
                    "TYPE_NAME": "define2_1_0.ODMcomplexTypeDefinitionItemRef",
                    "itemOID": "ADAE.ADURN",
                    "orderNumber": 20,
                    "mandatory": "No"
                  },
                  {
                    "TYPE_NAME": "define2_1_0.ODMcomplexTypeDefinitionItemRef",
                    "itemOID": "ADAE.ADURU",
                    "orderNumber": 21,
                    "mandatory": "No"
                  },
                  {
                    "TYPE_NAME": "define2_1_0.ODMcomplexTypeDefinitionItemRef",
                    "itemOID": "ADAE.AETERM",
                    "orderNumber": 22,
                    "mandatory": "No"
                  },
                  {
                    "TYPE_NAME": "define2_1_0.ODMcomplexTypeDefinitionItemRef",
                    "itemOID": "ADAE.AELLT",
                    "orderNumber": 23,
                    "mandatory": "No"
                  },
                  {
                    "TYPE_NAME": "define2_1_0.ODMcomplexTypeDefinitionItemRef",
                    "itemOID": "ADAE.AELLTCD",
                    "orderNumber": 24,
                    "mandatory": "No"
                  },
                  {
                    "TYPE_NAME": "define2_1_0.ODMcomplexTypeDefinitionItemRef",
                    "itemOID": "ADAE.AEDECOD",
                    "orderNumber": 25,
                    "mandatory": "No"
                  },
                  {
                    "TYPE_NAME": "define2_1_0.ODMcomplexTypeDefinitionItemRef",
                    "itemOID": "ADAE.AEPTCD",
                    "orderNumber": 26,
                    "mandatory": "No"
                  },
                  {
                    "TYPE_NAME": "define2_1_0.ODMcomplexTypeDefinitionItemRef",
                    "itemOID": "ADAE.AEHLT",
                    "orderNumber": 27,
                    "mandatory": "No"
                  },
                  {
                    "TYPE_NAME": "define2_1_0.ODMcomplexTypeDefinitionItemRef",
                    "itemOID": "ADAE.AEHLTCD",
                    "orderNumber": 28,
                    "mandatory": "No"
                  },
                  {
                    "TYPE_NAME": "define2_1_0.ODMcomplexTypeDefinitionItemRef",
                    "itemOID": "ADAE.AEHLGT",
                    "orderNumber": 29,
                    "mandatory": "No"
                  },
                  {
                    "TYPE_NAME": "define2_1_0.ODMcomplexTypeDefinitionItemRef",
                    "itemOID": "ADAE.AEHLGTCD",
                    "orderNumber": 30,
                    "mandatory": "No"
                  },
                  {
                    "TYPE_NAME": "define2_1_0.ODMcomplexTypeDefinitionItemRef",
                    "itemOID": "ADAE.AEBODSYS",
                    "orderNumber": 31,
                    "mandatory": "No"
                  },
                  {
                    "TYPE_NAME": "define2_1_0.ODMcomplexTypeDefinitionItemRef",
                    "itemOID": "ADAE.AESOC",
                    "orderNumber": 32,
                    "mandatory": "No"
                  },
                  {
                    "TYPE_NAME": "define2_1_0.ODMcomplexTypeDefinitionItemRef",
                    "itemOID": "ADAE.AESOCCD",
                    "orderNumber": 33,
                    "mandatory": "No"
                  },
                  {
                    "TYPE_NAME": "define2_1_0.ODMcomplexTypeDefinitionItemRef",
                    "itemOID": "ADAE.AESEV",
                    "orderNumber": 34,
                    "mandatory": "No"
                  },
                  {
                    "TYPE_NAME": "define2_1_0.ODMcomplexTypeDefinitionItemRef",
                    "itemOID": "ADAE.AESER",
                    "orderNumber": 35,
                    "mandatory": "No"
                  },
                  {
                    "TYPE_NAME": "define2_1_0.ODMcomplexTypeDefinitionItemRef",
                    "itemOID": "ADAE.AESCAN",
                    "orderNumber": 36,
                    "mandatory": "No"
                  },
                  {
                    "TYPE_NAME": "define2_1_0.ODMcomplexTypeDefinitionItemRef",
                    "itemOID": "ADAE.AESCONG",
                    "orderNumber": 37,
                    "mandatory": "No"
                  },
                  {
                    "TYPE_NAME": "define2_1_0.ODMcomplexTypeDefinitionItemRef",
                    "itemOID": "ADAE.AESDISAB",
                    "orderNumber": 38,
                    "mandatory": "No"
                  },
                  {
                    "TYPE_NAME": "define2_1_0.ODMcomplexTypeDefinitionItemRef",
                    "itemOID": "ADAE.AESDTH",
                    "orderNumber": 39,
                    "mandatory": "No"
                  },
                  {
                    "TYPE_NAME": "define2_1_0.ODMcomplexTypeDefinitionItemRef",
                    "itemOID": "ADAE.AESHOSP",
                    "orderNumber": 40,
                    "mandatory": "No"
                  },
                  {
                    "TYPE_NAME": "define2_1_0.ODMcomplexTypeDefinitionItemRef",
                    "itemOID": "ADAE.AESLIFE",
                    "orderNumber": 41,
                    "mandatory": "No"
                  },
                  {
                    "TYPE_NAME": "define2_1_0.ODMcomplexTypeDefinitionItemRef",
                    "itemOID": "ADAE.AESOD",
                    "orderNumber": 42,
                    "mandatory": "No"
                  },
                  {
                    "TYPE_NAME": "define2_1_0.ODMcomplexTypeDefinitionItemRef",
                    "itemOID": "ADAE.AEREL",
                    "orderNumber": 43,
                    "mandatory": "No"
                  },
                  {
                    "TYPE_NAME": "define2_1_0.ODMcomplexTypeDefinitionItemRef",
                    "itemOID": "ADAE.AEACN",
                    "orderNumber": 44,
                    "mandatory": "No"
                  },
                  {
                    "TYPE_NAME": "define2_1_0.ODMcomplexTypeDefinitionItemRef",
                    "itemOID": "ADAE.AEOUT",
                    "orderNumber": 45,
                    "mandatory": "No"
                  },
                  {
                    "TYPE_NAME": "define2_1_0.ODMcomplexTypeDefinitionItemRef",
                    "itemOID": "ADAE.AESEQ",
                    "orderNumber": 46,
                    "mandatory": "No"
                  },
                  {
                    "TYPE_NAME": "define2_1_0.ODMcomplexTypeDefinitionItemRef",
                    "itemOID": "ADAE.TRTEMFL",
                    "orderNumber": 47,
                    "mandatory": "No"
                  },
                  {
                    "TYPE_NAME": "define2_1_0.ODMcomplexTypeDefinitionItemRef",
                    "itemOID": "ADAE.AOCCFL",
                    "orderNumber": 48,
                    "mandatory": "No"
                  },
                  {
                    "TYPE_NAME": "define2_1_0.ODMcomplexTypeDefinitionItemRef",
                    "itemOID": "ADAE.AOCCSFL",
                    "orderNumber": 49,
                    "mandatory": "No"
                  },
                  {
                    "TYPE_NAME": "define2_1_0.ODMcomplexTypeDefinitionItemRef",
                    "itemOID": "ADAE.AOCCPFL",
                    "orderNumber": 50,
                    "mandatory": "No"
                  },
                  {
                    "TYPE_NAME": "define2_1_0.ODMcomplexTypeDefinitionItemRef",
                    "itemOID": "ADAE.AOCC02FL",
                    "orderNumber": 51,
                    "mandatory": "No"
                  },
                  {
                    "TYPE_NAME": "define2_1_0.ODMcomplexTypeDefinitionItemRef",
                    "itemOID": "ADAE.AOCC03FL",
                    "orderNumber": 52,
                    "mandatory": "No"
                  },
                  {
                    "TYPE_NAME": "define2_1_0.ODMcomplexTypeDefinitionItemRef",
                    "itemOID": "ADAE.AOCC04FL",
                    "orderNumber": 53,
                    "mandatory": "No"
                  },
                  {
                    "TYPE_NAME": "define2_1_0.ODMcomplexTypeDefinitionItemRef",
                    "itemOID": "ADAE.CQ01NAM",
                    "orderNumber": 54,
                    "mandatory": "No"
                  },
                  {
                    "TYPE_NAME": "define2_1_0.ODMcomplexTypeDefinitionItemRef",
                    "itemOID": "ADAE.AOCC01FL",
                    "orderNumber": 55,
                    "mandatory": "No"
                  }
                ]
              },
              {
                "TYPE_NAME": "define2_1_0.ODMcomplexTypeDefinitionItemGroupDef",
                "oid": "ADLBC",
                "name": "ADLBC",
                "repeating": "Yes",
                "isReferenceData": "No",
                "purpose": "Analysis",
                "comment": " ",
                "description": {
                  "TYPE_NAME": "define2_1_0.ODMcomplexTypeDefinitionDescription",
                  "translatedText": [
                    {
                      "TYPE_NAME": "define2_1_0.ODMcomplexTypeDefinitionTranslatedText",
                      "lang": "en",
                      "value": "Analysis Dataset Lab Blood Chemistry"
                    }
                  ]
                },
                "itemRef": [
                  {
                    "TYPE_NAME": "define2_1_0.ODMcomplexTypeDefinitionItemRef",
                    "itemOID": "ADLBC.STUDYID",
                    "orderNumber": 1,
                    "mandatory": "No"
                  },
                  {
                    "TYPE_NAME": "define2_1_0.ODMcomplexTypeDefinitionItemRef",
                    "itemOID": "ADLBC.SUBJID",
                    "orderNumber": 2,
                    "mandatory": "No"
                  },
                  {
                    "TYPE_NAME": "define2_1_0.ODMcomplexTypeDefinitionItemRef",
                    "itemOID": "ADLBC.USUBJID",
                    "orderNumber": 3,
                    "mandatory": "No"
                  },
                  {
                    "TYPE_NAME": "define2_1_0.ODMcomplexTypeDefinitionItemRef",
                    "itemOID": "ADLBC.TRTP",
                    "orderNumber": 4,
                    "mandatory": "No"
                  },
                  {
                    "TYPE_NAME": "define2_1_0.ODMcomplexTypeDefinitionItemRef",
                    "itemOID": "ADLBC.TRTPN",
                    "orderNumber": 5,
                    "mandatory": "No"
                  },
                  {
                    "TYPE_NAME": "define2_1_0.ODMcomplexTypeDefinitionItemRef",
                    "itemOID": "ADLBC.TRTA",
                    "orderNumber": 6,
                    "mandatory": "No"
                  },
                  {
                    "TYPE_NAME": "define2_1_0.ODMcomplexTypeDefinitionItemRef",
                    "itemOID": "ADLBC.TRTAN",
                    "orderNumber": 7,
                    "mandatory": "No"
                  },
                  {
                    "TYPE_NAME": "define2_1_0.ODMcomplexTypeDefinitionItemRef",
                    "itemOID": "ADLBC.TRTSDT",
                    "orderNumber": 8,
                    "mandatory": "No"
                  },
                  {
                    "TYPE_NAME": "define2_1_0.ODMcomplexTypeDefinitionItemRef",
                    "itemOID": "ADLBC.TRTEDT",
                    "orderNumber": 9,
                    "mandatory": "No"
                  },
                  {
                    "TYPE_NAME": "define2_1_0.ODMcomplexTypeDefinitionItemRef",
                    "itemOID": "ADLBC.AGE",
                    "orderNumber": 10,
                    "mandatory": "No"
                  },
                  {
                    "TYPE_NAME": "define2_1_0.ODMcomplexTypeDefinitionItemRef",
                    "itemOID": "ADLBC.AGEGR1",
                    "orderNumber": 11,
                    "mandatory": "No"
                  },
                  {
                    "TYPE_NAME": "define2_1_0.ODMcomplexTypeDefinitionItemRef",
                    "itemOID": "ADLBC.AGEGR1N",
                    "orderNumber": 12,
                    "mandatory": "No"
                  },
                  {
                    "TYPE_NAME": "define2_1_0.ODMcomplexTypeDefinitionItemRef",
                    "itemOID": "ADLBC.RACE",
                    "orderNumber": 13,
                    "mandatory": "No"
                  },
                  {
                    "TYPE_NAME": "define2_1_0.ODMcomplexTypeDefinitionItemRef",
                    "itemOID": "ADLBC.RACEN",
                    "orderNumber": 14,
                    "mandatory": "No"
                  },
                  {
                    "TYPE_NAME": "define2_1_0.ODMcomplexTypeDefinitionItemRef",
                    "itemOID": "ADLBC.SEX",
                    "orderNumber": 15,
                    "mandatory": "No"
                  },
                  {
                    "TYPE_NAME": "define2_1_0.ODMcomplexTypeDefinitionItemRef",
                    "itemOID": "ADLBC.COMP24FL",
                    "orderNumber": 16,
                    "mandatory": "No"
                  },
                  {
                    "TYPE_NAME": "define2_1_0.ODMcomplexTypeDefinitionItemRef",
                    "itemOID": "ADLBC.DSRAEFL",
                    "orderNumber": 17,
                    "mandatory": "No"
                  },
                  {
                    "TYPE_NAME": "define2_1_0.ODMcomplexTypeDefinitionItemRef",
                    "itemOID": "ADLBC.SAFFL",
                    "orderNumber": 18,
                    "mandatory": "No"
                  },
                  {
                    "TYPE_NAME": "define2_1_0.ODMcomplexTypeDefinitionItemRef",
                    "itemOID": "ADLBC.AVISIT",
                    "orderNumber": 19,
                    "mandatory": "No"
                  },
                  {
                    "TYPE_NAME": "define2_1_0.ODMcomplexTypeDefinitionItemRef",
                    "itemOID": "ADLBC.AVISITN",
                    "orderNumber": 20,
                    "mandatory": "No"
                  },
                  {
                    "TYPE_NAME": "define2_1_0.ODMcomplexTypeDefinitionItemRef",
                    "itemOID": "ADLBC.ADY",
                    "orderNumber": 21,
                    "mandatory": "No"
                  },
                  {
                    "TYPE_NAME": "define2_1_0.ODMcomplexTypeDefinitionItemRef",
                    "itemOID": "ADLBC.ADT",
                    "orderNumber": 22,
                    "mandatory": "No"
                  },
                  {
                    "TYPE_NAME": "define2_1_0.ODMcomplexTypeDefinitionItemRef",
                    "itemOID": "ADLBC.VISIT",
                    "orderNumber": 23,
                    "mandatory": "No"
                  },
                  {
                    "TYPE_NAME": "define2_1_0.ODMcomplexTypeDefinitionItemRef",
                    "itemOID": "ADLBC.VISITNUM",
                    "orderNumber": 24,
                    "mandatory": "No"
                  },
                  {
                    "TYPE_NAME": "define2_1_0.ODMcomplexTypeDefinitionItemRef",
                    "itemOID": "ADLBC.PARAM",
                    "orderNumber": 25,
                    "mandatory": "No"
                  },
                  {
                    "TYPE_NAME": "define2_1_0.ODMcomplexTypeDefinitionItemRef",
                    "itemOID": "ADLBC.PARAMCD",
                    "orderNumber": 26,
                    "mandatory": "No"
                  },
                  {
                    "TYPE_NAME": "define2_1_0.ODMcomplexTypeDefinitionItemRef",
                    "itemOID": "ADLBC.PARAMN",
                    "orderNumber": 27,
                    "mandatory": "No"
                  },
                  {
                    "TYPE_NAME": "define2_1_0.ODMcomplexTypeDefinitionItemRef",
                    "itemOID": "ADLBC.PARCAT1",
                    "orderNumber": 28,
                    "mandatory": "No"
                  },
                  {
                    "TYPE_NAME": "define2_1_0.ODMcomplexTypeDefinitionItemRef",
                    "itemOID": "ADLBC.AVAL",
                    "orderNumber": 29,
                    "mandatory": "No"
                  },
                  {
                    "TYPE_NAME": "define2_1_0.ODMcomplexTypeDefinitionItemRef",
                    "itemOID": "ADLBC.BASE",
                    "orderNumber": 30,
                    "mandatory": "No"
                  },
                  {
                    "TYPE_NAME": "define2_1_0.ODMcomplexTypeDefinitionItemRef",
                    "itemOID": "ADLBC.CHG",
                    "orderNumber": 31,
                    "mandatory": "No"
                  },
                  {
                    "TYPE_NAME": "define2_1_0.ODMcomplexTypeDefinitionItemRef",
                    "itemOID": "ADLBC.A1LO",
                    "orderNumber": 32,
                    "mandatory": "No"
                  },
                  {
                    "TYPE_NAME": "define2_1_0.ODMcomplexTypeDefinitionItemRef",
                    "itemOID": "ADLBC.A1HI",
                    "orderNumber": 33,
                    "mandatory": "No"
                  },
                  {
                    "TYPE_NAME": "define2_1_0.ODMcomplexTypeDefinitionItemRef",
                    "itemOID": "ADLBC.R2A1LO",
                    "orderNumber": 34,
                    "mandatory": "No"
                  },
                  {
                    "TYPE_NAME": "define2_1_0.ODMcomplexTypeDefinitionItemRef",
                    "itemOID": "ADLBC.R2A1HI",
                    "orderNumber": 35,
                    "mandatory": "No"
                  },
                  {
                    "TYPE_NAME": "define2_1_0.ODMcomplexTypeDefinitionItemRef",
                    "itemOID": "ADLBC.BR2A1LO",
                    "orderNumber": 36,
                    "mandatory": "No"
                  },
                  {
                    "TYPE_NAME": "define2_1_0.ODMcomplexTypeDefinitionItemRef",
                    "itemOID": "ADLBC.BR2A1HI",
                    "orderNumber": 37,
                    "mandatory": "No"
                  },
                  {
                    "TYPE_NAME": "define2_1_0.ODMcomplexTypeDefinitionItemRef",
                    "itemOID": "ADLBC.ANL01FL",
                    "orderNumber": 38,
                    "mandatory": "No"
                  },
                  {
                    "TYPE_NAME": "define2_1_0.ODMcomplexTypeDefinitionItemRef",
                    "itemOID": "ADLBC.ALBTRVAL",
                    "orderNumber": 39,
                    "mandatory": "No"
                  },
                  {
                    "TYPE_NAME": "define2_1_0.ODMcomplexTypeDefinitionItemRef",
                    "itemOID": "ADLBC.ANRIND",
                    "orderNumber": 40,
                    "mandatory": "No"
                  },
                  {
                    "TYPE_NAME": "define2_1_0.ODMcomplexTypeDefinitionItemRef",
                    "itemOID": "ADLBC.BNRIND",
                    "orderNumber": 41,
                    "mandatory": "No"
                  },
                  {
                    "TYPE_NAME": "define2_1_0.ODMcomplexTypeDefinitionItemRef",
                    "itemOID": "ADLBC.ABLFL",
                    "orderNumber": 42,
                    "mandatory": "No"
                  },
                  {
                    "TYPE_NAME": "define2_1_0.ODMcomplexTypeDefinitionItemRef",
                    "itemOID": "ADLBC.AENTMTFL",
                    "orderNumber": 43,
                    "mandatory": "No"
                  },
                  {
                    "TYPE_NAME": "define2_1_0.ODMcomplexTypeDefinitionItemRef",
                    "itemOID": "ADLBC.LBSEQ",
                    "orderNumber": 44,
                    "mandatory": "No"
                  },
                  {
                    "TYPE_NAME": "define2_1_0.ODMcomplexTypeDefinitionItemRef",
                    "itemOID": "ADLBC.LBNRIND",
                    "orderNumber": 45,
                    "mandatory": "No"
                  },
                  {
                    "TYPE_NAME": "define2_1_0.ODMcomplexTypeDefinitionItemRef",
                    "itemOID": "ADLBC.LBSTRESN",
                    "orderNumber": 46,
                    "mandatory": "No"
                  }
                ]
              },
              {
                "TYPE_NAME": "define2_1_0.ODMcomplexTypeDefinitionItemGroupDef",
                "oid": "ADLBH",
                "name": "ADLBH",
                "repeating": "Yes",
                "isReferenceData": "No",
                "purpose": "Analysis",
                "comment": " ",
                "description": {
                  "TYPE_NAME": "define2_1_0.ODMcomplexTypeDefinitionDescription",
                  "translatedText": [
                    {
                      "TYPE_NAME": "define2_1_0.ODMcomplexTypeDefinitionTranslatedText",
                      "lang": "en",
                      "value": "Analysis Dataset Lab Hematology"
                    }
                  ]
                },
                "itemRef": [
                  {
                    "TYPE_NAME": "define2_1_0.ODMcomplexTypeDefinitionItemRef",
                    "itemOID": "ADLBH.STUDYID",
                    "orderNumber": 1,
                    "mandatory": "No"
                  },
                  {
                    "TYPE_NAME": "define2_1_0.ODMcomplexTypeDefinitionItemRef",
                    "itemOID": "ADLBH.SUBJID",
                    "orderNumber": 2,
                    "mandatory": "No"
                  },
                  {
                    "TYPE_NAME": "define2_1_0.ODMcomplexTypeDefinitionItemRef",
                    "itemOID": "ADLBH.USUBJID",
                    "orderNumber": 3,
                    "mandatory": "No"
                  },
                  {
                    "TYPE_NAME": "define2_1_0.ODMcomplexTypeDefinitionItemRef",
                    "itemOID": "ADLBH.TRTP",
                    "orderNumber": 4,
                    "mandatory": "No"
                  },
                  {
                    "TYPE_NAME": "define2_1_0.ODMcomplexTypeDefinitionItemRef",
                    "itemOID": "ADLBH.TRTPN",
                    "orderNumber": 5,
                    "mandatory": "No"
                  },
                  {
                    "TYPE_NAME": "define2_1_0.ODMcomplexTypeDefinitionItemRef",
                    "itemOID": "ADLBH.TRTA",
                    "orderNumber": 6,
                    "mandatory": "No"
                  },
                  {
                    "TYPE_NAME": "define2_1_0.ODMcomplexTypeDefinitionItemRef",
                    "itemOID": "ADLBH.TRTAN",
                    "orderNumber": 7,
                    "mandatory": "No"
                  },
                  {
                    "TYPE_NAME": "define2_1_0.ODMcomplexTypeDefinitionItemRef",
                    "itemOID": "ADLBH.TRTSDT",
                    "orderNumber": 8,
                    "mandatory": "No"
                  },
                  {
                    "TYPE_NAME": "define2_1_0.ODMcomplexTypeDefinitionItemRef",
                    "itemOID": "ADLBH.TRTEDT",
                    "orderNumber": 9,
                    "mandatory": "No"
                  },
                  {
                    "TYPE_NAME": "define2_1_0.ODMcomplexTypeDefinitionItemRef",
                    "itemOID": "ADLBH.AGE",
                    "orderNumber": 10,
                    "mandatory": "No"
                  },
                  {
                    "TYPE_NAME": "define2_1_0.ODMcomplexTypeDefinitionItemRef",
                    "itemOID": "ADLBH.AGEGR1",
                    "orderNumber": 11,
                    "mandatory": "No"
                  },
                  {
                    "TYPE_NAME": "define2_1_0.ODMcomplexTypeDefinitionItemRef",
                    "itemOID": "ADLBH.AGEGR1N",
                    "orderNumber": 12,
                    "mandatory": "No"
                  },
                  {
                    "TYPE_NAME": "define2_1_0.ODMcomplexTypeDefinitionItemRef",
                    "itemOID": "ADLBH.RACE",
                    "orderNumber": 13,
                    "mandatory": "No"
                  },
                  {
                    "TYPE_NAME": "define2_1_0.ODMcomplexTypeDefinitionItemRef",
                    "itemOID": "ADLBH.RACEN",
                    "orderNumber": 14,
                    "mandatory": "No"
                  },
                  {
                    "TYPE_NAME": "define2_1_0.ODMcomplexTypeDefinitionItemRef",
                    "itemOID": "ADLBH.SEX",
                    "orderNumber": 15,
                    "mandatory": "No"
                  },
                  {
                    "TYPE_NAME": "define2_1_0.ODMcomplexTypeDefinitionItemRef",
                    "itemOID": "ADLBH.COMP24FL",
                    "orderNumber": 16,
                    "mandatory": "No"
                  },
                  {
                    "TYPE_NAME": "define2_1_0.ODMcomplexTypeDefinitionItemRef",
                    "itemOID": "ADLBH.DSRAEFL",
                    "orderNumber": 17,
                    "mandatory": "No"
                  },
                  {
                    "TYPE_NAME": "define2_1_0.ODMcomplexTypeDefinitionItemRef",
                    "itemOID": "ADLBH.SAFFL",
                    "orderNumber": 18,
                    "mandatory": "No"
                  },
                  {
                    "TYPE_NAME": "define2_1_0.ODMcomplexTypeDefinitionItemRef",
                    "itemOID": "ADLBH.AVISIT",
                    "orderNumber": 19,
                    "mandatory": "No"
                  },
                  {
                    "TYPE_NAME": "define2_1_0.ODMcomplexTypeDefinitionItemRef",
                    "itemOID": "ADLBH.AVISITN",
                    "orderNumber": 20,
                    "mandatory": "No"
                  },
                  {
                    "TYPE_NAME": "define2_1_0.ODMcomplexTypeDefinitionItemRef",
                    "itemOID": "ADLBH.ADY",
                    "orderNumber": 21,
                    "mandatory": "No"
                  },
                  {
                    "TYPE_NAME": "define2_1_0.ODMcomplexTypeDefinitionItemRef",
                    "itemOID": "ADLBH.ADT",
                    "orderNumber": 22,
                    "mandatory": "No"
                  },
                  {
                    "TYPE_NAME": "define2_1_0.ODMcomplexTypeDefinitionItemRef",
                    "itemOID": "ADLBH.VISIT",
                    "orderNumber": 23,
                    "mandatory": "No"
                  },
                  {
                    "TYPE_NAME": "define2_1_0.ODMcomplexTypeDefinitionItemRef",
                    "itemOID": "ADLBH.VISITNUM",
                    "orderNumber": 24,
                    "mandatory": "No"
                  },
                  {
                    "TYPE_NAME": "define2_1_0.ODMcomplexTypeDefinitionItemRef",
                    "itemOID": "ADLBH.PARAM",
                    "orderNumber": 25,
                    "mandatory": "No"
                  },
                  {
                    "TYPE_NAME": "define2_1_0.ODMcomplexTypeDefinitionItemRef",
                    "itemOID": "ADLBH.PARAMCD",
                    "orderNumber": 26,
                    "mandatory": "No"
                  },
                  {
                    "TYPE_NAME": "define2_1_0.ODMcomplexTypeDefinitionItemRef",
                    "itemOID": "ADLBH.PARAMN",
                    "orderNumber": 27,
                    "mandatory": "No"
                  },
                  {
                    "TYPE_NAME": "define2_1_0.ODMcomplexTypeDefinitionItemRef",
                    "itemOID": "ADLBH.PARCAT1",
                    "orderNumber": 28,
                    "mandatory": "No"
                  },
                  {
                    "TYPE_NAME": "define2_1_0.ODMcomplexTypeDefinitionItemRef",
                    "itemOID": "ADLBH.AVAL",
                    "orderNumber": 29,
                    "mandatory": "No"
                  },
                  {
                    "TYPE_NAME": "define2_1_0.ODMcomplexTypeDefinitionItemRef",
                    "itemOID": "ADLBH.BASE",
                    "orderNumber": 30,
                    "mandatory": "No"
                  },
                  {
                    "TYPE_NAME": "define2_1_0.ODMcomplexTypeDefinitionItemRef",
                    "itemOID": "ADLBH.CHG",
                    "orderNumber": 31,
                    "mandatory": "No"
                  },
                  {
                    "TYPE_NAME": "define2_1_0.ODMcomplexTypeDefinitionItemRef",
                    "itemOID": "ADLBH.A1LO",
                    "orderNumber": 32,
                    "mandatory": "No"
                  },
                  {
                    "TYPE_NAME": "define2_1_0.ODMcomplexTypeDefinitionItemRef",
                    "itemOID": "ADLBH.A1HI",
                    "orderNumber": 33,
                    "mandatory": "No"
                  },
                  {
                    "TYPE_NAME": "define2_1_0.ODMcomplexTypeDefinitionItemRef",
                    "itemOID": "ADLBH.R2A1LO",
                    "orderNumber": 34,
                    "mandatory": "No"
                  },
                  {
                    "TYPE_NAME": "define2_1_0.ODMcomplexTypeDefinitionItemRef",
                    "itemOID": "ADLBH.R2A1HI",
                    "orderNumber": 35,
                    "mandatory": "No"
                  },
                  {
                    "TYPE_NAME": "define2_1_0.ODMcomplexTypeDefinitionItemRef",
                    "itemOID": "ADLBH.BR2A1LO",
                    "orderNumber": 36,
                    "mandatory": "No"
                  },
                  {
                    "TYPE_NAME": "define2_1_0.ODMcomplexTypeDefinitionItemRef",
                    "itemOID": "ADLBH.BR2A1HI",
                    "orderNumber": 37,
                    "mandatory": "No"
                  },
                  {
                    "TYPE_NAME": "define2_1_0.ODMcomplexTypeDefinitionItemRef",
                    "itemOID": "ADLBH.ANL01FL",
                    "orderNumber": 38,
                    "mandatory": "No"
                  },
                  {
                    "TYPE_NAME": "define2_1_0.ODMcomplexTypeDefinitionItemRef",
                    "itemOID": "ADLBH.ALBTRVAL",
                    "orderNumber": 39,
                    "mandatory": "No"
                  },
                  {
                    "TYPE_NAME": "define2_1_0.ODMcomplexTypeDefinitionItemRef",
                    "itemOID": "ADLBH.ANRIND",
                    "orderNumber": 40,
                    "mandatory": "No"
                  },
                  {
                    "TYPE_NAME": "define2_1_0.ODMcomplexTypeDefinitionItemRef",
                    "itemOID": "ADLBH.BNRIND",
                    "orderNumber": 41,
                    "mandatory": "No"
                  },
                  {
                    "TYPE_NAME": "define2_1_0.ODMcomplexTypeDefinitionItemRef",
                    "itemOID": "ADLBH.ABLFL",
                    "orderNumber": 42,
                    "mandatory": "No"
                  },
                  {
                    "TYPE_NAME": "define2_1_0.ODMcomplexTypeDefinitionItemRef",
                    "itemOID": "ADLBH.AENTMTFL",
                    "orderNumber": 43,
                    "mandatory": "No"
                  },
                  {
                    "TYPE_NAME": "define2_1_0.ODMcomplexTypeDefinitionItemRef",
                    "itemOID": "ADLBH.LBSEQ",
                    "orderNumber": 44,
                    "mandatory": "No"
                  },
                  {
                    "TYPE_NAME": "define2_1_0.ODMcomplexTypeDefinitionItemRef",
                    "itemOID": "ADLBH.LBNRIND",
                    "orderNumber": 45,
                    "mandatory": "No"
                  },
                  {
                    "TYPE_NAME": "define2_1_0.ODMcomplexTypeDefinitionItemRef",
                    "itemOID": "ADLBH.LBSTRESN",
                    "orderNumber": 46,
                    "mandatory": "No"
                  }
                ]
              },
              {
                "TYPE_NAME": "define2_1_0.ODMcomplexTypeDefinitionItemGroupDef",
                "oid": "ADLBHY",
                "name": "ADLBHY",
                "repeating": "Yes",
                "isReferenceData": "No",
                "purpose": "Analysis",
                "comment": " ",
                "description": {
                  "TYPE_NAME": "define2_1_0.ODMcomplexTypeDefinitionDescription",
                  "translatedText": [
                    {
                      "TYPE_NAME": "define2_1_0.ODMcomplexTypeDefinitionTranslatedText",
                      "lang": "en",
                      "value": "Analysis Dataset Lab Hy's Law"
                    }
                  ]
                },
                "itemRef": [
                  {
                    "TYPE_NAME": "define2_1_0.ODMcomplexTypeDefinitionItemRef",
                    "itemOID": "ADLBHY.STUDYID",
                    "orderNumber": 1,
                    "mandatory": "No"
                  },
                  {
                    "TYPE_NAME": "define2_1_0.ODMcomplexTypeDefinitionItemRef",
                    "itemOID": "ADLBHY.SUBJID",
                    "orderNumber": 2,
                    "mandatory": "No"
                  },
                  {
                    "TYPE_NAME": "define2_1_0.ODMcomplexTypeDefinitionItemRef",
                    "itemOID": "ADLBHY.USUBJID",
                    "orderNumber": 3,
                    "mandatory": "No"
                  },
                  {
                    "TYPE_NAME": "define2_1_0.ODMcomplexTypeDefinitionItemRef",
                    "itemOID": "ADLBHY.TRTP",
                    "orderNumber": 4,
                    "mandatory": "No"
                  },
                  {
                    "TYPE_NAME": "define2_1_0.ODMcomplexTypeDefinitionItemRef",
                    "itemOID": "ADLBHY.TRTPN",
                    "orderNumber": 5,
                    "mandatory": "No"
                  },
                  {
                    "TYPE_NAME": "define2_1_0.ODMcomplexTypeDefinitionItemRef",
                    "itemOID": "ADLBHY.TRTA",
                    "orderNumber": 6,
                    "mandatory": "No"
                  },
                  {
                    "TYPE_NAME": "define2_1_0.ODMcomplexTypeDefinitionItemRef",
                    "itemOID": "ADLBHY.TRTAN",
                    "orderNumber": 7,
                    "mandatory": "No"
                  },
                  {
                    "TYPE_NAME": "define2_1_0.ODMcomplexTypeDefinitionItemRef",
                    "itemOID": "ADLBHY.TRTSDT",
                    "orderNumber": 8,
                    "mandatory": "No"
                  },
                  {
                    "TYPE_NAME": "define2_1_0.ODMcomplexTypeDefinitionItemRef",
                    "itemOID": "ADLBHY.TRTEDT",
                    "orderNumber": 9,
                    "mandatory": "No"
                  },
                  {
                    "TYPE_NAME": "define2_1_0.ODMcomplexTypeDefinitionItemRef",
                    "itemOID": "ADLBHY.AGE",
                    "orderNumber": 10,
                    "mandatory": "No"
                  },
                  {
                    "TYPE_NAME": "define2_1_0.ODMcomplexTypeDefinitionItemRef",
                    "itemOID": "ADLBHY.AGEGR1",
                    "orderNumber": 11,
                    "mandatory": "No"
                  },
                  {
                    "TYPE_NAME": "define2_1_0.ODMcomplexTypeDefinitionItemRef",
                    "itemOID": "ADLBHY.AGEGR1N",
                    "orderNumber": 12,
                    "mandatory": "No"
                  },
                  {
                    "TYPE_NAME": "define2_1_0.ODMcomplexTypeDefinitionItemRef",
                    "itemOID": "ADLBHY.RACE",
                    "orderNumber": 13,
                    "mandatory": "No"
                  },
                  {
                    "TYPE_NAME": "define2_1_0.ODMcomplexTypeDefinitionItemRef",
                    "itemOID": "ADLBHY.RACEN",
                    "orderNumber": 14,
                    "mandatory": "No"
                  },
                  {
                    "TYPE_NAME": "define2_1_0.ODMcomplexTypeDefinitionItemRef",
                    "itemOID": "ADLBHY.SEX",
                    "orderNumber": 15,
                    "mandatory": "No"
                  },
                  {
                    "TYPE_NAME": "define2_1_0.ODMcomplexTypeDefinitionItemRef",
                    "itemOID": "ADLBHY.COMP24FL",
                    "orderNumber": 16,
                    "mandatory": "No"
                  },
                  {
                    "TYPE_NAME": "define2_1_0.ODMcomplexTypeDefinitionItemRef",
                    "itemOID": "ADLBHY.DSRAEFL",
                    "orderNumber": 17,
                    "mandatory": "No"
                  },
                  {
                    "TYPE_NAME": "define2_1_0.ODMcomplexTypeDefinitionItemRef",
                    "itemOID": "ADLBHY.SAFFL",
                    "orderNumber": 18,
                    "mandatory": "No"
                  },
                  {
                    "TYPE_NAME": "define2_1_0.ODMcomplexTypeDefinitionItemRef",
                    "itemOID": "ADLBHY.AVISIT",
                    "orderNumber": 19,
                    "mandatory": "No"
                  },
                  {
                    "TYPE_NAME": "define2_1_0.ODMcomplexTypeDefinitionItemRef",
                    "itemOID": "ADLBHY.AVISITN",
                    "orderNumber": 20,
                    "mandatory": "No"
                  },
                  {
                    "TYPE_NAME": "define2_1_0.ODMcomplexTypeDefinitionItemRef",
                    "itemOID": "ADLBHY.ADY",
                    "orderNumber": 21,
                    "mandatory": "No"
                  },
                  {
                    "TYPE_NAME": "define2_1_0.ODMcomplexTypeDefinitionItemRef",
                    "itemOID": "ADLBHY.ADT",
                    "orderNumber": 22,
                    "mandatory": "No"
                  },
                  {
                    "TYPE_NAME": "define2_1_0.ODMcomplexTypeDefinitionItemRef",
                    "itemOID": "ADLBHY.VISIT",
                    "orderNumber": 23,
                    "mandatory": "No"
                  },
                  {
                    "TYPE_NAME": "define2_1_0.ODMcomplexTypeDefinitionItemRef",
                    "itemOID": "ADLBHY.VISITNUM",
                    "orderNumber": 24,
                    "mandatory": "No"
                  },
                  {
                    "TYPE_NAME": "define2_1_0.ODMcomplexTypeDefinitionItemRef",
                    "itemOID": "ADLBHY.PARAMTYP",
                    "orderNumber": 25,
                    "mandatory": "No"
                  },
                  {
                    "TYPE_NAME": "define2_1_0.ODMcomplexTypeDefinitionItemRef",
                    "itemOID": "ADLBHY.PARAM",
                    "orderNumber": 26,
                    "mandatory": "No"
                  },
                  {
                    "TYPE_NAME": "define2_1_0.ODMcomplexTypeDefinitionItemRef",
                    "itemOID": "ADLBHY.PARAMCD",
                    "orderNumber": 27,
                    "mandatory": "No"
                  },
                  {
                    "TYPE_NAME": "define2_1_0.ODMcomplexTypeDefinitionItemRef",
                    "itemOID": "ADLBHY.PARAMN",
                    "orderNumber": 28,
                    "mandatory": "No"
                  },
                  {
                    "TYPE_NAME": "define2_1_0.ODMcomplexTypeDefinitionItemRef",
                    "itemOID": "ADLBHY.PARCAT1",
                    "orderNumber": 29,
                    "mandatory": "No"
                  },
                  {
                    "TYPE_NAME": "define2_1_0.ODMcomplexTypeDefinitionItemRef",
                    "itemOID": "ADLBHY.AVAL",
                    "orderNumber": 30,
                    "mandatory": "No"
                  },
                  {
                    "TYPE_NAME": "define2_1_0.ODMcomplexTypeDefinitionItemRef",
                    "itemOID": "ADLBHY.BASE",
                    "orderNumber": 31,
                    "mandatory": "No"
                  },
                  {
                    "TYPE_NAME": "define2_1_0.ODMcomplexTypeDefinitionItemRef",
                    "itemOID": "ADLBHY.A1LO",
                    "orderNumber": 32,
                    "mandatory": "No"
                  },
                  {
                    "TYPE_NAME": "define2_1_0.ODMcomplexTypeDefinitionItemRef",
                    "itemOID": "ADLBHY.A1HI",
                    "orderNumber": 33,
                    "mandatory": "No"
                  },
                  {
                    "TYPE_NAME": "define2_1_0.ODMcomplexTypeDefinitionItemRef",
                    "itemOID": "ADLBHY.R2A1LO",
                    "orderNumber": 34,
                    "mandatory": "No"
                  },
                  {
                    "TYPE_NAME": "define2_1_0.ODMcomplexTypeDefinitionItemRef",
                    "itemOID": "ADLBHY.R2A1HI",
                    "orderNumber": 35,
                    "mandatory": "No"
                  },
                  {
                    "TYPE_NAME": "define2_1_0.ODMcomplexTypeDefinitionItemRef",
                    "itemOID": "ADLBHY.BR2A1LO",
                    "orderNumber": 36,
                    "mandatory": "No"
                  },
                  {
                    "TYPE_NAME": "define2_1_0.ODMcomplexTypeDefinitionItemRef",
                    "itemOID": "ADLBHY.BR2A1HI",
                    "orderNumber": 37,
                    "mandatory": "No"
                  },
                  {
                    "TYPE_NAME": "define2_1_0.ODMcomplexTypeDefinitionItemRef",
                    "itemOID": "ADLBHY.ABLFL",
                    "orderNumber": 38,
                    "mandatory": "No"
                  },
                  {
                    "TYPE_NAME": "define2_1_0.ODMcomplexTypeDefinitionItemRef",
                    "itemOID": "ADLBHY.SHIFT1",
                    "orderNumber": 39,
                    "mandatory": "No"
                  },
                  {
                    "TYPE_NAME": "define2_1_0.ODMcomplexTypeDefinitionItemRef",
                    "itemOID": "ADLBHY.SHIFT1N",
                    "orderNumber": 40,
                    "mandatory": "No"
                  },
                  {
                    "TYPE_NAME": "define2_1_0.ODMcomplexTypeDefinitionItemRef",
                    "itemOID": "ADLBHY.CRIT1",
                    "orderNumber": 41,
                    "mandatory": "No"
                  },
                  {
                    "TYPE_NAME": "define2_1_0.ODMcomplexTypeDefinitionItemRef",
                    "itemOID": "ADLBHY.CRIT1FL",
                    "orderNumber": 42,
                    "mandatory": "No"
                  },
                  {
                    "TYPE_NAME": "define2_1_0.ODMcomplexTypeDefinitionItemRef",
                    "itemOID": "ADLBHY.CRIT1FN",
                    "orderNumber": 43,
                    "mandatory": "No"
                  }
                ]
              },
              {
                "TYPE_NAME": "define2_1_0.ODMcomplexTypeDefinitionItemGroupDef",
                "oid": "ADQSADAS",
                "name": "ADQSADAS",
                "repeating": "Yes",
                "isReferenceData": "No",
                "purpose": "Analysis",
                "comment": " ",
                "description": {
                  "TYPE_NAME": "define2_1_0.ODMcomplexTypeDefinitionDescription",
                  "translatedText": [
                    {
                      "TYPE_NAME": "define2_1_0.ODMcomplexTypeDefinitionTranslatedText",
                      "lang": "en",
                      "value": "ADAS-Cog Analysis"
                    }
                  ]
                },
                "itemRef": [
                  {
                    "TYPE_NAME": "define2_1_0.ODMcomplexTypeDefinitionItemRef",
                    "itemOID": "ADQSADAS.STUDYID",
                    "orderNumber": 1,
                    "mandatory": "No"
                  },
                  {
                    "TYPE_NAME": "define2_1_0.ODMcomplexTypeDefinitionItemRef",
                    "itemOID": "ADQSADAS.SITEID",
                    "orderNumber": 2,
                    "mandatory": "No"
                  },
                  {
                    "TYPE_NAME": "define2_1_0.ODMcomplexTypeDefinitionItemRef",
                    "itemOID": "ADQSADAS.SITEGR1",
                    "orderNumber": 3,
                    "mandatory": "No"
                  },
                  {
                    "TYPE_NAME": "define2_1_0.ODMcomplexTypeDefinitionItemRef",
                    "itemOID": "ADQSADAS.USUBJID",
                    "orderNumber": 4,
                    "mandatory": "No"
                  },
                  {
                    "TYPE_NAME": "define2_1_0.ODMcomplexTypeDefinitionItemRef",
                    "itemOID": "ADQSADAS.TRTSDT",
                    "orderNumber": 5,
                    "mandatory": "No"
                  },
                  {
                    "TYPE_NAME": "define2_1_0.ODMcomplexTypeDefinitionItemRef",
                    "itemOID": "ADQSADAS.TRTEDT",
                    "orderNumber": 6,
                    "mandatory": "No"
                  },
                  {
                    "TYPE_NAME": "define2_1_0.ODMcomplexTypeDefinitionItemRef",
                    "itemOID": "ADQSADAS.TRTP",
                    "orderNumber": 7,
                    "mandatory": "No"
                  },
                  {
                    "TYPE_NAME": "define2_1_0.ODMcomplexTypeDefinitionItemRef",
                    "itemOID": "ADQSADAS.TRTPN",
                    "orderNumber": 8,
                    "mandatory": "No"
                  },
                  {
                    "TYPE_NAME": "define2_1_0.ODMcomplexTypeDefinitionItemRef",
                    "itemOID": "ADQSADAS.AGE",
                    "orderNumber": 9,
                    "mandatory": "No"
                  },
                  {
                    "TYPE_NAME": "define2_1_0.ODMcomplexTypeDefinitionItemRef",
                    "itemOID": "ADQSADAS.AGEGR1",
                    "orderNumber": 10,
                    "mandatory": "No"
                  },
                  {
                    "TYPE_NAME": "define2_1_0.ODMcomplexTypeDefinitionItemRef",
                    "itemOID": "ADQSADAS.AGEGR1N",
                    "orderNumber": 11,
                    "mandatory": "No"
                  },
                  {
                    "TYPE_NAME": "define2_1_0.ODMcomplexTypeDefinitionItemRef",
                    "itemOID": "ADQSADAS.RACE",
                    "orderNumber": 12,
                    "mandatory": "No"
                  },
                  {
                    "TYPE_NAME": "define2_1_0.ODMcomplexTypeDefinitionItemRef",
                    "itemOID": "ADQSADAS.RACEN",
                    "orderNumber": 13,
                    "mandatory": "No"
                  },
                  {
                    "TYPE_NAME": "define2_1_0.ODMcomplexTypeDefinitionItemRef",
                    "itemOID": "ADQSADAS.SEX",
                    "orderNumber": 14,
                    "mandatory": "No"
                  },
                  {
                    "TYPE_NAME": "define2_1_0.ODMcomplexTypeDefinitionItemRef",
                    "itemOID": "ADQSADAS.ITTFL",
                    "orderNumber": 15,
                    "mandatory": "No"
                  },
                  {
                    "TYPE_NAME": "define2_1_0.ODMcomplexTypeDefinitionItemRef",
                    "itemOID": "ADQSADAS.EFFFL",
                    "orderNumber": 16,
                    "mandatory": "No"
                  },
                  {
                    "TYPE_NAME": "define2_1_0.ODMcomplexTypeDefinitionItemRef",
                    "itemOID": "ADQSADAS.COMP24FL",
                    "orderNumber": 17,
                    "mandatory": "No"
                  },
                  {
                    "TYPE_NAME": "define2_1_0.ODMcomplexTypeDefinitionItemRef",
                    "itemOID": "ADQSADAS.AVISIT",
                    "orderNumber": 18,
                    "mandatory": "No"
                  },
                  {
                    "TYPE_NAME": "define2_1_0.ODMcomplexTypeDefinitionItemRef",
                    "itemOID": "ADQSADAS.AVISITN",
                    "orderNumber": 19,
                    "mandatory": "No"
                  },
                  {
                    "TYPE_NAME": "define2_1_0.ODMcomplexTypeDefinitionItemRef",
                    "itemOID": "ADQSADAS.VISIT",
                    "orderNumber": 20,
                    "mandatory": "No"
                  },
                  {
                    "TYPE_NAME": "define2_1_0.ODMcomplexTypeDefinitionItemRef",
                    "itemOID": "ADQSADAS.VISITNUM",
                    "orderNumber": 21,
                    "mandatory": "No"
                  },
                  {
                    "TYPE_NAME": "define2_1_0.ODMcomplexTypeDefinitionItemRef",
                    "itemOID": "ADQSADAS.ADY",
                    "orderNumber": 22,
                    "mandatory": "No"
                  },
                  {
                    "TYPE_NAME": "define2_1_0.ODMcomplexTypeDefinitionItemRef",
                    "itemOID": "ADQSADAS.ADT",
                    "orderNumber": 23,
                    "mandatory": "No"
                  },
                  {
                    "TYPE_NAME": "define2_1_0.ODMcomplexTypeDefinitionItemRef",
                    "itemOID": "ADQSADAS.PARAM",
                    "orderNumber": 24,
                    "mandatory": "No"
                  },
                  {
                    "TYPE_NAME": "define2_1_0.ODMcomplexTypeDefinitionItemRef",
                    "itemOID": "ADQSADAS.PARAMCD",
                    "orderNumber": 25,
                    "mandatory": "No"
                  },
                  {
                    "TYPE_NAME": "define2_1_0.ODMcomplexTypeDefinitionItemRef",
                    "itemOID": "ADQSADAS.PARAMN",
                    "orderNumber": 26,
                    "mandatory": "No"
                  },
                  {
                    "TYPE_NAME": "define2_1_0.ODMcomplexTypeDefinitionItemRef",
                    "itemOID": "ADQSADAS.AVAL",
                    "orderNumber": 27,
                    "mandatory": "No"
                  },
                  {
                    "TYPE_NAME": "define2_1_0.ODMcomplexTypeDefinitionItemRef",
                    "itemOID": "ADQSADAS.BASE",
                    "orderNumber": 28,
                    "mandatory": "No"
                  },
                  {
                    "TYPE_NAME": "define2_1_0.ODMcomplexTypeDefinitionItemRef",
                    "itemOID": "ADQSADAS.CHG",
                    "orderNumber": 29,
                    "mandatory": "No"
                  },
                  {
                    "TYPE_NAME": "define2_1_0.ODMcomplexTypeDefinitionItemRef",
                    "itemOID": "ADQSADAS.PCHG",
                    "orderNumber": 30,
                    "mandatory": "No"
                  },
                  {
                    "TYPE_NAME": "define2_1_0.ODMcomplexTypeDefinitionItemRef",
                    "itemOID": "ADQSADAS.ABLFL",
                    "orderNumber": 31,
                    "mandatory": "No"
                  },
                  {
                    "TYPE_NAME": "define2_1_0.ODMcomplexTypeDefinitionItemRef",
                    "itemOID": "ADQSADAS.ANL01FL",
                    "orderNumber": 32,
                    "mandatory": "No"
                  },
                  {
                    "TYPE_NAME": "define2_1_0.ODMcomplexTypeDefinitionItemRef",
                    "itemOID": "ADQSADAS.DTYPE",
                    "orderNumber": 33,
                    "mandatory": "No"
                  },
                  {
                    "TYPE_NAME": "define2_1_0.ODMcomplexTypeDefinitionItemRef",
                    "itemOID": "ADQSADAS.AWRANGE",
                    "orderNumber": 34,
                    "mandatory": "No"
                  },
                  {
                    "TYPE_NAME": "define2_1_0.ODMcomplexTypeDefinitionItemRef",
                    "itemOID": "ADQSADAS.AWTARGET",
                    "orderNumber": 35,
                    "mandatory": "No"
                  },
                  {
                    "TYPE_NAME": "define2_1_0.ODMcomplexTypeDefinitionItemRef",
                    "itemOID": "ADQSADAS.AWTDIFF",
                    "orderNumber": 36,
                    "mandatory": "No"
                  },
                  {
                    "TYPE_NAME": "define2_1_0.ODMcomplexTypeDefinitionItemRef",
                    "itemOID": "ADQSADAS.AWLO",
                    "orderNumber": 37,
                    "mandatory": "No"
                  },
                  {
                    "TYPE_NAME": "define2_1_0.ODMcomplexTypeDefinitionItemRef",
                    "itemOID": "ADQSADAS.AWHI",
                    "orderNumber": 38,
                    "mandatory": "No"
                  },
                  {
                    "TYPE_NAME": "define2_1_0.ODMcomplexTypeDefinitionItemRef",
                    "itemOID": "ADQSADAS.AWU",
                    "orderNumber": 39,
                    "mandatory": "No"
                  },
                  {
                    "TYPE_NAME": "define2_1_0.ODMcomplexTypeDefinitionItemRef",
                    "itemOID": "ADQSADAS.QSSEQ",
                    "orderNumber": 40,
                    "mandatory": "No"
                  }
                ]
              },
              {
                "TYPE_NAME": "define2_1_0.ODMcomplexTypeDefinitionItemGroupDef",
                "oid": "ADQSCIBC",
                "name": "ADQSCIBC",
                "repeating": "Yes",
                "isReferenceData": "No",
                "purpose": "Analysis",
                "comment": " ",
                "description": {
                  "TYPE_NAME": "define2_1_0.ODMcomplexTypeDefinitionDescription",
                  "translatedText": [
                    {
                      "TYPE_NAME": "define2_1_0.ODMcomplexTypeDefinitionTranslatedText",
                      "lang": "en",
                      "value": "CIBIC+ Analysis"
                    }
                  ]
                },
                "itemRef": [
                  {
                    "TYPE_NAME": "define2_1_0.ODMcomplexTypeDefinitionItemRef",
                    "itemOID": "ADQSCIBC.STUDYID",
                    "orderNumber": 1,
                    "mandatory": "No"
                  },
                  {
                    "TYPE_NAME": "define2_1_0.ODMcomplexTypeDefinitionItemRef",
                    "itemOID": "ADQSCIBC.SITEID",
                    "orderNumber": 2,
                    "mandatory": "No"
                  },
                  {
                    "TYPE_NAME": "define2_1_0.ODMcomplexTypeDefinitionItemRef",
                    "itemOID": "ADQSCIBC.SITEGR1",
                    "orderNumber": 3,
                    "mandatory": "No"
                  },
                  {
                    "TYPE_NAME": "define2_1_0.ODMcomplexTypeDefinitionItemRef",
                    "itemOID": "ADQSCIBC.USUBJID",
                    "orderNumber": 4,
                    "mandatory": "No"
                  },
                  {
                    "TYPE_NAME": "define2_1_0.ODMcomplexTypeDefinitionItemRef",
                    "itemOID": "ADQSCIBC.TRTSDT",
                    "orderNumber": 5,
                    "mandatory": "No"
                  },
                  {
                    "TYPE_NAME": "define2_1_0.ODMcomplexTypeDefinitionItemRef",
                    "itemOID": "ADQSCIBC.TRTEDT",
                    "orderNumber": 6,
                    "mandatory": "No"
                  },
                  {
                    "TYPE_NAME": "define2_1_0.ODMcomplexTypeDefinitionItemRef",
                    "itemOID": "ADQSCIBC.TRTP",
                    "orderNumber": 7,
                    "mandatory": "No"
                  },
                  {
                    "TYPE_NAME": "define2_1_0.ODMcomplexTypeDefinitionItemRef",
                    "itemOID": "ADQSCIBC.TRTPN",
                    "orderNumber": 8,
                    "mandatory": "No"
                  },
                  {
                    "TYPE_NAME": "define2_1_0.ODMcomplexTypeDefinitionItemRef",
                    "itemOID": "ADQSCIBC.AGE",
                    "orderNumber": 9,
                    "mandatory": "No"
                  },
                  {
                    "TYPE_NAME": "define2_1_0.ODMcomplexTypeDefinitionItemRef",
                    "itemOID": "ADQSCIBC.AGEGR1",
                    "orderNumber": 10,
                    "mandatory": "No"
                  },
                  {
                    "TYPE_NAME": "define2_1_0.ODMcomplexTypeDefinitionItemRef",
                    "itemOID": "ADQSCIBC.AGEGR1N",
                    "orderNumber": 11,
                    "mandatory": "No"
                  },
                  {
                    "TYPE_NAME": "define2_1_0.ODMcomplexTypeDefinitionItemRef",
                    "itemOID": "ADQSCIBC.RACE",
                    "orderNumber": 12,
                    "mandatory": "No"
                  },
                  {
                    "TYPE_NAME": "define2_1_0.ODMcomplexTypeDefinitionItemRef",
                    "itemOID": "ADQSCIBC.RACEN",
                    "orderNumber": 13,
                    "mandatory": "No"
                  },
                  {
                    "TYPE_NAME": "define2_1_0.ODMcomplexTypeDefinitionItemRef",
                    "itemOID": "ADQSCIBC.SEX",
                    "orderNumber": 14,
                    "mandatory": "No"
                  },
                  {
                    "TYPE_NAME": "define2_1_0.ODMcomplexTypeDefinitionItemRef",
                    "itemOID": "ADQSCIBC.ITTFL",
                    "orderNumber": 15,
                    "mandatory": "No"
                  },
                  {
                    "TYPE_NAME": "define2_1_0.ODMcomplexTypeDefinitionItemRef",
                    "itemOID": "ADQSCIBC.EFFFL",
                    "orderNumber": 16,
                    "mandatory": "No"
                  },
                  {
                    "TYPE_NAME": "define2_1_0.ODMcomplexTypeDefinitionItemRef",
                    "itemOID": "ADQSCIBC.COMP24FL",
                    "orderNumber": 17,
                    "mandatory": "No"
                  },
                  {
                    "TYPE_NAME": "define2_1_0.ODMcomplexTypeDefinitionItemRef",
                    "itemOID": "ADQSCIBC.AVISIT",
                    "orderNumber": 18,
                    "mandatory": "No"
                  },
                  {
                    "TYPE_NAME": "define2_1_0.ODMcomplexTypeDefinitionItemRef",
                    "itemOID": "ADQSCIBC.AVISITN",
                    "orderNumber": 19,
                    "mandatory": "No"
                  },
                  {
                    "TYPE_NAME": "define2_1_0.ODMcomplexTypeDefinitionItemRef",
                    "itemOID": "ADQSCIBC.VISIT",
                    "orderNumber": 20,
                    "mandatory": "No"
                  },
                  {
                    "TYPE_NAME": "define2_1_0.ODMcomplexTypeDefinitionItemRef",
                    "itemOID": "ADQSCIBC.VISITNUM",
                    "orderNumber": 21,
                    "mandatory": "No"
                  },
                  {
                    "TYPE_NAME": "define2_1_0.ODMcomplexTypeDefinitionItemRef",
                    "itemOID": "ADQSCIBC.ADY",
                    "orderNumber": 22,
                    "mandatory": "No"
                  },
                  {
                    "TYPE_NAME": "define2_1_0.ODMcomplexTypeDefinitionItemRef",
                    "itemOID": "ADQSCIBC.ADT",
                    "orderNumber": 23,
                    "mandatory": "No"
                  },
                  {
                    "TYPE_NAME": "define2_1_0.ODMcomplexTypeDefinitionItemRef",
                    "itemOID": "ADQSCIBC.PARAMCD",
                    "orderNumber": 24,
                    "mandatory": "No"
                  },
                  {
                    "TYPE_NAME": "define2_1_0.ODMcomplexTypeDefinitionItemRef",
                    "itemOID": "ADQSCIBC.PARAM",
                    "orderNumber": 25,
                    "mandatory": "No"
                  },
                  {
                    "TYPE_NAME": "define2_1_0.ODMcomplexTypeDefinitionItemRef",
                    "itemOID": "ADQSCIBC.PARAMN",
                    "orderNumber": 26,
                    "mandatory": "No"
                  },
                  {
                    "TYPE_NAME": "define2_1_0.ODMcomplexTypeDefinitionItemRef",
                    "itemOID": "ADQSCIBC.AVAL",
                    "orderNumber": 27,
                    "mandatory": "No"
                  },
                  {
                    "TYPE_NAME": "define2_1_0.ODMcomplexTypeDefinitionItemRef",
                    "itemOID": "ADQSCIBC.ANL01FL",
                    "orderNumber": 28,
                    "mandatory": "No"
                  },
                  {
                    "TYPE_NAME": "define2_1_0.ODMcomplexTypeDefinitionItemRef",
                    "itemOID": "ADQSCIBC.DTYPE",
                    "orderNumber": 29,
                    "mandatory": "No"
                  },
                  {
                    "TYPE_NAME": "define2_1_0.ODMcomplexTypeDefinitionItemRef",
                    "itemOID": "ADQSCIBC.AWRANGE",
                    "orderNumber": 30,
                    "mandatory": "No"
                  },
                  {
                    "TYPE_NAME": "define2_1_0.ODMcomplexTypeDefinitionItemRef",
                    "itemOID": "ADQSCIBC.AWTARGET",
                    "orderNumber": 31,
                    "mandatory": "No"
                  },
                  {
                    "TYPE_NAME": "define2_1_0.ODMcomplexTypeDefinitionItemRef",
                    "itemOID": "ADQSCIBC.AWTDIFF",
                    "orderNumber": 32,
                    "mandatory": "No"
                  },
                  {
                    "TYPE_NAME": "define2_1_0.ODMcomplexTypeDefinitionItemRef",
                    "itemOID": "ADQSCIBC.AWLO",
                    "orderNumber": 33,
                    "mandatory": "No"
                  },
                  {
                    "TYPE_NAME": "define2_1_0.ODMcomplexTypeDefinitionItemRef",
                    "itemOID": "ADQSCIBC.AWHI",
                    "orderNumber": 34,
                    "mandatory": "No"
                  },
                  {
                    "TYPE_NAME": "define2_1_0.ODMcomplexTypeDefinitionItemRef",
                    "itemOID": "ADQSCIBC.AWU",
                    "orderNumber": 35,
                    "mandatory": "No"
                  },
                  {
                    "TYPE_NAME": "define2_1_0.ODMcomplexTypeDefinitionItemRef",
                    "itemOID": "ADQSCIBC.QSSEQ",
                    "orderNumber": 36,
                    "mandatory": "No"
                  }
                ]
              },
              {
                "TYPE_NAME": "define2_1_0.ODMcomplexTypeDefinitionItemGroupDef",
                "oid": "ADQSNPIX",
                "name": "ADQSNPIX",
                "repeating": "Yes",
                "isReferenceData": "No",
                "purpose": "Analysis",
                "comment": " ",
                "description": {
                  "TYPE_NAME": "define2_1_0.ODMcomplexTypeDefinitionDescription",
                  "translatedText": [
                    {
                      "TYPE_NAME": "define2_1_0.ODMcomplexTypeDefinitionTranslatedText",
                      "lang": "en",
                      "value": "NPI-X Item Analysis Data"
                    }
                  ]
                },
                "itemRef": [
                  {
                    "TYPE_NAME": "define2_1_0.ODMcomplexTypeDefinitionItemRef",
                    "itemOID": "ADQSNPIX.STUDYID",
                    "orderNumber": 1,
                    "mandatory": "No"
                  },
                  {
                    "TYPE_NAME": "define2_1_0.ODMcomplexTypeDefinitionItemRef",
                    "itemOID": "ADQSNPIX.SITEID",
                    "orderNumber": 2,
                    "mandatory": "No"
                  },
                  {
                    "TYPE_NAME": "define2_1_0.ODMcomplexTypeDefinitionItemRef",
                    "itemOID": "ADQSNPIX.SITEGR1",
                    "orderNumber": 3,
                    "mandatory": "No"
                  },
                  {
                    "TYPE_NAME": "define2_1_0.ODMcomplexTypeDefinitionItemRef",
                    "itemOID": "ADQSNPIX.USUBJID",
                    "orderNumber": 4,
                    "mandatory": "No"
                  },
                  {
                    "TYPE_NAME": "define2_1_0.ODMcomplexTypeDefinitionItemRef",
                    "itemOID": "ADQSNPIX.TRTSDT",
                    "orderNumber": 5,
                    "mandatory": "No"
                  },
                  {
                    "TYPE_NAME": "define2_1_0.ODMcomplexTypeDefinitionItemRef",
                    "itemOID": "ADQSNPIX.TRTEDT",
                    "orderNumber": 6,
                    "mandatory": "No"
                  },
                  {
                    "TYPE_NAME": "define2_1_0.ODMcomplexTypeDefinitionItemRef",
                    "itemOID": "ADQSNPIX.TRTP",
                    "orderNumber": 7,
                    "mandatory": "No"
                  },
                  {
                    "TYPE_NAME": "define2_1_0.ODMcomplexTypeDefinitionItemRef",
                    "itemOID": "ADQSNPIX.TRTPN",
                    "orderNumber": 8,
                    "mandatory": "No"
                  },
                  {
                    "TYPE_NAME": "define2_1_0.ODMcomplexTypeDefinitionItemRef",
                    "itemOID": "ADQSNPIX.AGE",
                    "orderNumber": 9,
                    "mandatory": "No"
                  },
                  {
                    "TYPE_NAME": "define2_1_0.ODMcomplexTypeDefinitionItemRef",
                    "itemOID": "ADQSNPIX.AGEGR1",
                    "orderNumber": 10,
                    "mandatory": "No"
                  },
                  {
                    "TYPE_NAME": "define2_1_0.ODMcomplexTypeDefinitionItemRef",
                    "itemOID": "ADQSNPIX.AGEGR1N",
                    "orderNumber": 11,
                    "mandatory": "No"
                  },
                  {
                    "TYPE_NAME": "define2_1_0.ODMcomplexTypeDefinitionItemRef",
                    "itemOID": "ADQSNPIX.RACE",
                    "orderNumber": 12,
                    "mandatory": "No"
                  },
                  {
                    "TYPE_NAME": "define2_1_0.ODMcomplexTypeDefinitionItemRef",
                    "itemOID": "ADQSNPIX.RACEN",
                    "orderNumber": 13,
                    "mandatory": "No"
                  },
                  {
                    "TYPE_NAME": "define2_1_0.ODMcomplexTypeDefinitionItemRef",
                    "itemOID": "ADQSNPIX.SEX",
                    "orderNumber": 14,
                    "mandatory": "No"
                  },
                  {
                    "TYPE_NAME": "define2_1_0.ODMcomplexTypeDefinitionItemRef",
                    "itemOID": "ADQSNPIX.ITTFL",
                    "orderNumber": 15,
                    "mandatory": "No"
                  },
                  {
                    "TYPE_NAME": "define2_1_0.ODMcomplexTypeDefinitionItemRef",
                    "itemOID": "ADQSNPIX.EFFFL",
                    "orderNumber": 16,
                    "mandatory": "No"
                  },
                  {
                    "TYPE_NAME": "define2_1_0.ODMcomplexTypeDefinitionItemRef",
                    "itemOID": "ADQSNPIX.COMP24FL",
                    "orderNumber": 17,
                    "mandatory": "No"
                  },
                  {
                    "TYPE_NAME": "define2_1_0.ODMcomplexTypeDefinitionItemRef",
                    "itemOID": "ADQSNPIX.AVISIT",
                    "orderNumber": 18,
                    "mandatory": "No"
                  },
                  {
                    "TYPE_NAME": "define2_1_0.ODMcomplexTypeDefinitionItemRef",
                    "itemOID": "ADQSNPIX.AVISITN",
                    "orderNumber": 19,
                    "mandatory": "No"
                  },
                  {
                    "TYPE_NAME": "define2_1_0.ODMcomplexTypeDefinitionItemRef",
                    "itemOID": "ADQSNPIX.ADY",
                    "orderNumber": 20,
                    "mandatory": "No"
                  },
                  {
                    "TYPE_NAME": "define2_1_0.ODMcomplexTypeDefinitionItemRef",
                    "itemOID": "ADQSNPIX.ADT",
                    "orderNumber": 21,
                    "mandatory": "No"
                  },
                  {
                    "TYPE_NAME": "define2_1_0.ODMcomplexTypeDefinitionItemRef",
                    "itemOID": "ADQSNPIX.VISITNUM",
                    "orderNumber": 22,
                    "mandatory": "No"
                  },
                  {
                    "TYPE_NAME": "define2_1_0.ODMcomplexTypeDefinitionItemRef",
                    "itemOID": "ADQSNPIX.VISIT",
                    "orderNumber": 23,
                    "mandatory": "No"
                  },
                  {
                    "TYPE_NAME": "define2_1_0.ODMcomplexTypeDefinitionItemRef",
                    "itemOID": "ADQSNPIX.PARAM",
                    "orderNumber": 24,
                    "mandatory": "No"
                  },
                  {
                    "TYPE_NAME": "define2_1_0.ODMcomplexTypeDefinitionItemRef",
                    "itemOID": "ADQSNPIX.PARAMCD",
                    "orderNumber": 25,
                    "mandatory": "No"
                  },
                  {
                    "TYPE_NAME": "define2_1_0.ODMcomplexTypeDefinitionItemRef",
                    "itemOID": "ADQSNPIX.PARAMN",
                    "orderNumber": 26,
                    "mandatory": "No"
                  },
                  {
                    "TYPE_NAME": "define2_1_0.ODMcomplexTypeDefinitionItemRef",
                    "itemOID": "ADQSNPIX.PARAMTYP",
                    "orderNumber": 27,
                    "mandatory": "No"
                  },
                  {
                    "TYPE_NAME": "define2_1_0.ODMcomplexTypeDefinitionItemRef",
                    "itemOID": "ADQSNPIX.AVAL",
                    "orderNumber": 28,
                    "mandatory": "No"
                  },
                  {
                    "TYPE_NAME": "define2_1_0.ODMcomplexTypeDefinitionItemRef",
                    "itemOID": "ADQSNPIX.BASE",
                    "orderNumber": 29,
                    "mandatory": "No"
                  },
                  {
                    "TYPE_NAME": "define2_1_0.ODMcomplexTypeDefinitionItemRef",
                    "itemOID": "ADQSNPIX.CHG",
                    "orderNumber": 30,
                    "mandatory": "No"
                  },
                  {
                    "TYPE_NAME": "define2_1_0.ODMcomplexTypeDefinitionItemRef",
                    "itemOID": "ADQSNPIX.PCHG",
                    "orderNumber": 31,
                    "mandatory": "No"
                  },
                  {
                    "TYPE_NAME": "define2_1_0.ODMcomplexTypeDefinitionItemRef",
                    "itemOID": "ADQSNPIX.ABLFL",
                    "orderNumber": 32,
                    "mandatory": "No"
                  },
                  {
                    "TYPE_NAME": "define2_1_0.ODMcomplexTypeDefinitionItemRef",
                    "itemOID": "ADQSNPIX.ANL01FL",
                    "orderNumber": 33,
                    "mandatory": "No"
                  },
                  {
                    "TYPE_NAME": "define2_1_0.ODMcomplexTypeDefinitionItemRef",
                    "itemOID": "ADQSNPIX.DTYPE",
                    "orderNumber": 34,
                    "mandatory": "No"
                  },
                  {
                    "TYPE_NAME": "define2_1_0.ODMcomplexTypeDefinitionItemRef",
                    "itemOID": "ADQSNPIX.AWRANGE",
                    "orderNumber": 35,
                    "mandatory": "No"
                  },
                  {
                    "TYPE_NAME": "define2_1_0.ODMcomplexTypeDefinitionItemRef",
                    "itemOID": "ADQSNPIX.AWTARGET",
                    "orderNumber": 36,
                    "mandatory": "No"
                  },
                  {
                    "TYPE_NAME": "define2_1_0.ODMcomplexTypeDefinitionItemRef",
                    "itemOID": "ADQSNPIX.AWTDIFF",
                    "orderNumber": 37,
                    "mandatory": "No"
                  },
                  {
                    "TYPE_NAME": "define2_1_0.ODMcomplexTypeDefinitionItemRef",
                    "itemOID": "ADQSNPIX.AWLO",
                    "orderNumber": 38,
                    "mandatory": "No"
                  },
                  {
                    "TYPE_NAME": "define2_1_0.ODMcomplexTypeDefinitionItemRef",
                    "itemOID": "ADQSNPIX.AWHI",
                    "orderNumber": 39,
                    "mandatory": "No"
                  },
                  {
                    "TYPE_NAME": "define2_1_0.ODMcomplexTypeDefinitionItemRef",
                    "itemOID": "ADQSNPIX.AWU",
                    "orderNumber": 40,
                    "mandatory": "No"
                  },
                  {
                    "TYPE_NAME": "define2_1_0.ODMcomplexTypeDefinitionItemRef",
                    "itemOID": "ADQSNPIX.QSSEQ",
                    "orderNumber": 41,
                    "mandatory": "No"
                  }
                ]
              },
              {
                "TYPE_NAME": "define2_1_0.ODMcomplexTypeDefinitionItemGroupDef",
                "oid": "ADTTE",
                "name": "ADTTE",
                "repeating": "Yes",
                "isReferenceData": "No",
                "purpose": "Analysis",
                "comment": " ",
                "description": {
                  "TYPE_NAME": "define2_1_0.ODMcomplexTypeDefinitionDescription",
                  "translatedText": [
                    {
                      "TYPE_NAME": "define2_1_0.ODMcomplexTypeDefinitionTranslatedText",
                      "lang": "en",
                      "value": "AE Time To 1st Derm. Event Analysis"
                    }
                  ]
                },
                "itemRef": [
                  {
                    "TYPE_NAME": "define2_1_0.ODMcomplexTypeDefinitionItemRef",
                    "itemOID": "ADTTE.STUDYID",
                    "orderNumber": 1,
                    "mandatory": "No"
                  },
                  {
                    "TYPE_NAME": "define2_1_0.ODMcomplexTypeDefinitionItemRef",
                    "itemOID": "ADTTE.SITEID",
                    "orderNumber": 2,
                    "mandatory": "No"
                  },
                  {
                    "TYPE_NAME": "define2_1_0.ODMcomplexTypeDefinitionItemRef",
                    "itemOID": "ADTTE.USUBJID",
                    "orderNumber": 3,
                    "mandatory": "No"
                  },
                  {
                    "TYPE_NAME": "define2_1_0.ODMcomplexTypeDefinitionItemRef",
                    "itemOID": "ADTTE.AGE",
                    "orderNumber": 4,
                    "mandatory": "No"
                  },
                  {
                    "TYPE_NAME": "define2_1_0.ODMcomplexTypeDefinitionItemRef",
                    "itemOID": "ADTTE.AGEGR1",
                    "orderNumber": 5,
                    "mandatory": "No"
                  },
                  {
                    "TYPE_NAME": "define2_1_0.ODMcomplexTypeDefinitionItemRef",
                    "itemOID": "ADTTE.AGEGR1N",
                    "orderNumber": 6,
                    "mandatory": "No"
                  },
                  {
                    "TYPE_NAME": "define2_1_0.ODMcomplexTypeDefinitionItemRef",
                    "itemOID": "ADTTE.RACE",
                    "orderNumber": 7,
                    "mandatory": "No"
                  },
                  {
                    "TYPE_NAME": "define2_1_0.ODMcomplexTypeDefinitionItemRef",
                    "itemOID": "ADTTE.RACEN",
                    "orderNumber": 8,
                    "mandatory": "No"
                  },
                  {
                    "TYPE_NAME": "define2_1_0.ODMcomplexTypeDefinitionItemRef",
                    "itemOID": "ADTTE.SEX",
                    "orderNumber": 9,
                    "mandatory": "No"
                  },
                  {
                    "TYPE_NAME": "define2_1_0.ODMcomplexTypeDefinitionItemRef",
                    "itemOID": "ADTTE.TRTSDT",
                    "orderNumber": 10,
                    "mandatory": "No"
                  },
                  {
                    "TYPE_NAME": "define2_1_0.ODMcomplexTypeDefinitionItemRef",
                    "itemOID": "ADTTE.TRTEDT",
                    "orderNumber": 11,
                    "mandatory": "No"
                  },
                  {
                    "TYPE_NAME": "define2_1_0.ODMcomplexTypeDefinitionItemRef",
                    "itemOID": "ADTTE.TRTDUR",
                    "orderNumber": 12,
                    "mandatory": "No"
                  },
                  {
                    "TYPE_NAME": "define2_1_0.ODMcomplexTypeDefinitionItemRef",
                    "itemOID": "ADTTE.TRTP",
                    "orderNumber": 13,
                    "mandatory": "No"
                  },
                  {
                    "TYPE_NAME": "define2_1_0.ODMcomplexTypeDefinitionItemRef",
                    "itemOID": "ADTTE.TRTA",
                    "orderNumber": 14,
                    "mandatory": "No"
                  },
                  {
                    "TYPE_NAME": "define2_1_0.ODMcomplexTypeDefinitionItemRef",
                    "itemOID": "ADTTE.TRTAN",
                    "orderNumber": 15,
                    "mandatory": "No"
                  },
                  {
                    "TYPE_NAME": "define2_1_0.ODMcomplexTypeDefinitionItemRef",
                    "itemOID": "ADTTE.PARAM",
                    "orderNumber": 16,
                    "mandatory": "No"
                  },
                  {
                    "TYPE_NAME": "define2_1_0.ODMcomplexTypeDefinitionItemRef",
                    "itemOID": "ADTTE.PARAMCD",
                    "orderNumber": 17,
                    "mandatory": "No"
                  },
                  {
                    "TYPE_NAME": "define2_1_0.ODMcomplexTypeDefinitionItemRef",
                    "itemOID": "ADTTE.AVAL",
                    "orderNumber": 18,
                    "mandatory": "No"
                  },
                  {
                    "TYPE_NAME": "define2_1_0.ODMcomplexTypeDefinitionItemRef",
                    "itemOID": "ADTTE.STARTDT",
                    "orderNumber": 19,
                    "mandatory": "No"
                  },
                  {
                    "TYPE_NAME": "define2_1_0.ODMcomplexTypeDefinitionItemRef",
                    "itemOID": "ADTTE.ADT",
                    "orderNumber": 20,
                    "mandatory": "No"
                  },
                  {
                    "TYPE_NAME": "define2_1_0.ODMcomplexTypeDefinitionItemRef",
                    "itemOID": "ADTTE.CNSR",
                    "orderNumber": 21,
                    "mandatory": "No"
                  },
                  {
                    "TYPE_NAME": "define2_1_0.ODMcomplexTypeDefinitionItemRef",
                    "itemOID": "ADTTE.EVNTDESC",
                    "orderNumber": 22,
                    "mandatory": "No"
                  },
                  {
                    "TYPE_NAME": "define2_1_0.ODMcomplexTypeDefinitionItemRef",
                    "itemOID": "ADTTE.SRCDOM",
                    "orderNumber": 23,
                    "mandatory": "No"
                  },
                  {
                    "TYPE_NAME": "define2_1_0.ODMcomplexTypeDefinitionItemRef",
                    "itemOID": "ADTTE.SRCVAR",
                    "orderNumber": 24,
                    "mandatory": "No"
                  },
                  {
                    "TYPE_NAME": "define2_1_0.ODMcomplexTypeDefinitionItemRef",
                    "itemOID": "ADTTE.SRCSEQ",
                    "orderNumber": 25,
                    "mandatory": "No"
                  },
                  {
                    "TYPE_NAME": "define2_1_0.ODMcomplexTypeDefinitionItemRef",
                    "itemOID": "ADTTE.SAFFL",
                    "orderNumber": 26,
                    "mandatory": "No"
                  }
                ]
              },
              {
                "TYPE_NAME": "define2_1_0.ODMcomplexTypeDefinitionItemGroupDef",
                "oid": "ADVS",
                "name": "ADVS",
                "repeating": "Yes",
                "isReferenceData": "No",
                "purpose": "Analysis",
                "comment": " ",
                "description": {
                  "TYPE_NAME": "define2_1_0.ODMcomplexTypeDefinitionDescription",
                  "translatedText": [
                    {
                      "TYPE_NAME": "define2_1_0.ODMcomplexTypeDefinitionTranslatedText",
                      "lang": "en",
                      "value": "Vital Signs Analysis Dataset"
                    }
                  ]
                },
                "itemRef": [
                  {
                    "TYPE_NAME": "define2_1_0.ODMcomplexTypeDefinitionItemRef",
                    "itemOID": "ADVS.STUDYID",
                    "orderNumber": 1,
                    "mandatory": "No"
                  },
                  {
                    "TYPE_NAME": "define2_1_0.ODMcomplexTypeDefinitionItemRef",
                    "itemOID": "ADVS.SITEID",
                    "orderNumber": 2,
                    "mandatory": "No"
                  },
                  {
                    "TYPE_NAME": "define2_1_0.ODMcomplexTypeDefinitionItemRef",
                    "itemOID": "ADVS.USUBJID",
                    "orderNumber": 3,
                    "mandatory": "No"
                  },
                  {
                    "TYPE_NAME": "define2_1_0.ODMcomplexTypeDefinitionItemRef",
                    "itemOID": "ADVS.AGE",
                    "orderNumber": 4,
                    "mandatory": "No"
                  },
                  {
                    "TYPE_NAME": "define2_1_0.ODMcomplexTypeDefinitionItemRef",
                    "itemOID": "ADVS.AGEGR1",
                    "orderNumber": 5,
                    "mandatory": "No"
                  },
                  {
                    "TYPE_NAME": "define2_1_0.ODMcomplexTypeDefinitionItemRef",
                    "itemOID": "ADVS.AGEGR1N",
                    "orderNumber": 6,
                    "mandatory": "No"
                  },
                  {
                    "TYPE_NAME": "define2_1_0.ODMcomplexTypeDefinitionItemRef",
                    "itemOID": "ADVS.RACE",
                    "orderNumber": 7,
                    "mandatory": "No"
                  },
                  {
                    "TYPE_NAME": "define2_1_0.ODMcomplexTypeDefinitionItemRef",
                    "itemOID": "ADVS.RACEN",
                    "orderNumber": 8,
                    "mandatory": "No"
                  },
                  {
                    "TYPE_NAME": "define2_1_0.ODMcomplexTypeDefinitionItemRef",
                    "itemOID": "ADVS.SEX",
                    "orderNumber": 9,
                    "mandatory": "No"
                  },
                  {
                    "TYPE_NAME": "define2_1_0.ODMcomplexTypeDefinitionItemRef",
                    "itemOID": "ADVS.SAFFL",
                    "orderNumber": 10,
                    "mandatory": "No"
                  },
                  {
                    "TYPE_NAME": "define2_1_0.ODMcomplexTypeDefinitionItemRef",
                    "itemOID": "ADVS.TRTSDT",
                    "orderNumber": 11,
                    "mandatory": "No"
                  },
                  {
                    "TYPE_NAME": "define2_1_0.ODMcomplexTypeDefinitionItemRef",
                    "itemOID": "ADVS.TRTEDT",
                    "orderNumber": 12,
                    "mandatory": "No"
                  },
                  {
                    "TYPE_NAME": "define2_1_0.ODMcomplexTypeDefinitionItemRef",
                    "itemOID": "ADVS.TRTP",
                    "orderNumber": 13,
                    "mandatory": "No"
                  },
                  {
                    "TYPE_NAME": "define2_1_0.ODMcomplexTypeDefinitionItemRef",
                    "itemOID": "ADVS.TRTPN",
                    "orderNumber": 14,
                    "mandatory": "No"
                  },
                  {
                    "TYPE_NAME": "define2_1_0.ODMcomplexTypeDefinitionItemRef",
                    "itemOID": "ADVS.TRTA",
                    "orderNumber": 15,
                    "mandatory": "No"
                  },
                  {
                    "TYPE_NAME": "define2_1_0.ODMcomplexTypeDefinitionItemRef",
                    "itemOID": "ADVS.TRTAN",
                    "orderNumber": 16,
                    "mandatory": "No"
                  },
                  {
                    "TYPE_NAME": "define2_1_0.ODMcomplexTypeDefinitionItemRef",
                    "itemOID": "ADVS.PARAMCD",
                    "orderNumber": 17,
                    "mandatory": "No"
                  },
                  {
                    "TYPE_NAME": "define2_1_0.ODMcomplexTypeDefinitionItemRef",
                    "itemOID": "ADVS.PARAM",
                    "orderNumber": 18,
                    "mandatory": "No"
                  },
                  {
                    "TYPE_NAME": "define2_1_0.ODMcomplexTypeDefinitionItemRef",
                    "itemOID": "ADVS.PARAMN",
                    "orderNumber": 19,
                    "mandatory": "No"
                  },
                  {
                    "TYPE_NAME": "define2_1_0.ODMcomplexTypeDefinitionItemRef",
                    "itemOID": "ADVS.ADT",
                    "orderNumber": 20,
                    "mandatory": "No"
                  },
                  {
                    "TYPE_NAME": "define2_1_0.ODMcomplexTypeDefinitionItemRef",
                    "itemOID": "ADVS.ADY",
                    "orderNumber": 21,
                    "mandatory": "No"
                  },
                  {
                    "TYPE_NAME": "define2_1_0.ODMcomplexTypeDefinitionItemRef",
                    "itemOID": "ADVS.ATPTN",
                    "orderNumber": 22,
                    "mandatory": "No"
                  },
                  {
                    "TYPE_NAME": "define2_1_0.ODMcomplexTypeDefinitionItemRef",
                    "itemOID": "ADVS.ATPT",
                    "orderNumber": 23,
                    "mandatory": "No"
                  },
                  {
                    "TYPE_NAME": "define2_1_0.ODMcomplexTypeDefinitionItemRef",
                    "itemOID": "ADVS.AVISIT",
                    "orderNumber": 24,
                    "mandatory": "No"
                  },
                  {
                    "TYPE_NAME": "define2_1_0.ODMcomplexTypeDefinitionItemRef",
                    "itemOID": "ADVS.AVISITN",
                    "orderNumber": 25,
                    "mandatory": "No"
                  },
                  {
                    "TYPE_NAME": "define2_1_0.ODMcomplexTypeDefinitionItemRef",
                    "itemOID": "ADVS.AVAL",
                    "orderNumber": 26,
                    "mandatory": "No"
                  },
                  {
                    "TYPE_NAME": "define2_1_0.ODMcomplexTypeDefinitionItemRef",
                    "itemOID": "ADVS.BASE",
                    "orderNumber": 27,
                    "mandatory": "No"
                  },
                  {
                    "TYPE_NAME": "define2_1_0.ODMcomplexTypeDefinitionItemRef",
                    "itemOID": "ADVS.CHG",
                    "orderNumber": 28,
                    "mandatory": "No"
                  },
                  {
                    "TYPE_NAME": "define2_1_0.ODMcomplexTypeDefinitionItemRef",
                    "itemOID": "ADVS.PCHG",
                    "orderNumber": 29,
                    "mandatory": "No"
                  },
                  {
                    "TYPE_NAME": "define2_1_0.ODMcomplexTypeDefinitionItemRef",
                    "itemOID": "ADVS.VISITNUM",
                    "orderNumber": 30,
                    "mandatory": "No"
                  },
                  {
                    "TYPE_NAME": "define2_1_0.ODMcomplexTypeDefinitionItemRef",
                    "itemOID": "ADVS.VISIT",
                    "orderNumber": 31,
                    "mandatory": "No"
                  },
                  {
                    "TYPE_NAME": "define2_1_0.ODMcomplexTypeDefinitionItemRef",
                    "itemOID": "ADVS.VSSEQ",
                    "orderNumber": 32,
                    "mandatory": "No"
                  },
                  {
                    "TYPE_NAME": "define2_1_0.ODMcomplexTypeDefinitionItemRef",
                    "itemOID": "ADVS.ANL01FL",
                    "orderNumber": 33,
                    "mandatory": "No"
                  },
                  {
                    "TYPE_NAME": "define2_1_0.ODMcomplexTypeDefinitionItemRef",
                    "itemOID": "ADVS.ABLFL",
                    "orderNumber": 34,
                    "mandatory": "No"
                  }
                ]
              }
            ],
            "itemDef": [
              {
                "TYPE_NAME": "define2_1_0.ODMcomplexTypeDefinitionItemDef",
                "oid": "ADAE.STUDYID",
                "name": "STUDYID",
                "dataType": "text",
                "length": 12,
                "description": {
                  "TYPE_NAME": "define2_1_0.ODMcomplexTypeDefinitionDescription",
                  "translatedText": [
                    {
                      "TYPE_NAME": "define2_1_0.ODMcomplexTypeDefinitionTranslatedText",
                      "lang": "en",
                      "value": "Study Identifier"
                    }
                  ]
                }
              },
              {
                "TYPE_NAME": "define2_1_0.ODMcomplexTypeDefinitionItemDef",
                "oid": "ADAE.SITEID",
                "name": "SITEID",
                "dataType": "text",
                "length": 3,
                "description": {
                  "TYPE_NAME": "define2_1_0.ODMcomplexTypeDefinitionDescription",
                  "translatedText": [
                    {
                      "TYPE_NAME": "define2_1_0.ODMcomplexTypeDefinitionTranslatedText",
                      "lang": "en",
                      "value": "Study Site Identifier"
                    }
                  ]
                }
              },
              {
                "TYPE_NAME": "define2_1_0.ODMcomplexTypeDefinitionItemDef",
                "oid": "ADAE.USUBJID",
                "name": "USUBJID",
                "dataType": "text",
                "length": 11,
                "description": {
                  "TYPE_NAME": "define2_1_0.ODMcomplexTypeDefinitionDescription",
                  "translatedText": [
                    {
                      "TYPE_NAME": "define2_1_0.ODMcomplexTypeDefinitionTranslatedText",
                      "lang": "en",
                      "value": "Unique Subject Identifier"
                    }
                  ]
                }
              },
              {
                "TYPE_NAME": "define2_1_0.ODMcomplexTypeDefinitionItemDef",
                "oid": "ADAE.TRTA",
                "name": "TRTA",
                "dataType": "text",
                "length": 20,
                "description": {
                  "TYPE_NAME": "define2_1_0.ODMcomplexTypeDefinitionDescription",
                  "translatedText": [
                    {
                      "TYPE_NAME": "define2_1_0.ODMcomplexTypeDefinitionTranslatedText",
                      "lang": "en",
                      "value": "Actual Treatment"
                    }
                  ]
                },
                "codeListRef": {
                  "TYPE_NAME": "define2_1_0.ODMcomplexTypeDefinitionCodeListRef",
                  "codeListOID": "ARM"
                }
              },
              {
                "TYPE_NAME": "define2_1_0.ODMcomplexTypeDefinitionItemDef",
                "oid": "ADAE.TRTAN",
                "name": "TRTAN",
                "dataType": "integer",
                "length": 8,
                "description": {
                  "TYPE_NAME": "define2_1_0.ODMcomplexTypeDefinitionDescription",
                  "translatedText": [
                    {
                      "TYPE_NAME": "define2_1_0.ODMcomplexTypeDefinitionTranslatedText",
                      "lang": "en",
                      "value": "Actual Treatment (N)"
                    }
                  ]
                },
                "codeListRef": {
                  "TYPE_NAME": "define2_1_0.ODMcomplexTypeDefinitionCodeListRef",
                  "codeListOID": "ARMN"
                }
              },
              {
                "TYPE_NAME": "define2_1_0.ODMcomplexTypeDefinitionItemDef",
                "oid": "ADAE.AGE",
                "name": "AGE",
                "dataType": "integer",
                "length": 8,
                "description": {
                  "TYPE_NAME": "define2_1_0.ODMcomplexTypeDefinitionDescription",
                  "translatedText": [
                    {
                      "TYPE_NAME": "define2_1_0.ODMcomplexTypeDefinitionTranslatedText",
                      "lang": "en",
                      "value": "Age"
                    }
                  ]
                }
              },
              {
                "TYPE_NAME": "define2_1_0.ODMcomplexTypeDefinitionItemDef",
                "oid": "ADAE.AGEGR1",
                "name": "AGEGR1",
                "dataType": "text",
                "length": 5,
                "description": {
                  "TYPE_NAME": "define2_1_0.ODMcomplexTypeDefinitionDescription",
                  "translatedText": [
                    {
                      "TYPE_NAME": "define2_1_0.ODMcomplexTypeDefinitionTranslatedText",
                      "lang": "en",
                      "value": "Pooled Age Group 1"
                    }
                  ]
                },
                "codeListRef": {
                  "TYPE_NAME": "define2_1_0.ODMcomplexTypeDefinitionCodeListRef",
                  "codeListOID": "AGEGR1"
                }
              },
              {
                "TYPE_NAME": "define2_1_0.ODMcomplexTypeDefinitionItemDef",
                "oid": "ADAE.AGEGR1N",
                "name": "AGEGR1N",
                "dataType": "integer",
                "length": 8,
                "description": {
                  "TYPE_NAME": "define2_1_0.ODMcomplexTypeDefinitionDescription",
                  "translatedText": [
                    {
                      "TYPE_NAME": "define2_1_0.ODMcomplexTypeDefinitionTranslatedText",
                      "lang": "en",
                      "value": "Pooled Age Group 1 (N)"
                    }
                  ]
                },
                "codeListRef": {
                  "TYPE_NAME": "define2_1_0.ODMcomplexTypeDefinitionCodeListRef",
                  "codeListOID": "AGEGR1N"
                }
              },
              {
                "TYPE_NAME": "define2_1_0.ODMcomplexTypeDefinitionItemDef",
                "oid": "ADAE.RACE",
                "name": "RACE",
                "dataType": "text",
                "length": 32,
                "description": {
                  "TYPE_NAME": "define2_1_0.ODMcomplexTypeDefinitionDescription",
                  "translatedText": [
                    {
                      "TYPE_NAME": "define2_1_0.ODMcomplexTypeDefinitionTranslatedText",
                      "lang": "en",
                      "value": "Race"
                    }
                  ]
                },
                "codeListRef": {
                  "TYPE_NAME": "define2_1_0.ODMcomplexTypeDefinitionCodeListRef",
                  "codeListOID": "RACE"
                }
              },
              {
                "TYPE_NAME": "define2_1_0.ODMcomplexTypeDefinitionItemDef",
                "oid": "ADAE.RACEN",
                "name": "RACEN",
                "dataType": "integer",
                "length": 8,
                "description": {
                  "TYPE_NAME": "define2_1_0.ODMcomplexTypeDefinitionDescription",
                  "translatedText": [
                    {
                      "TYPE_NAME": "define2_1_0.ODMcomplexTypeDefinitionTranslatedText",
                      "lang": "en",
                      "value": "Race (N)"
                    }
                  ]
                },
                "codeListRef": {
                  "TYPE_NAME": "define2_1_0.ODMcomplexTypeDefinitionCodeListRef",
                  "codeListOID": "RACEN"
                }
              },
              {
                "TYPE_NAME": "define2_1_0.ODMcomplexTypeDefinitionItemDef",
                "oid": "ADAE.SEX",
                "name": "SEX",
                "dataType": "text",
                "length": 1,
                "description": {
                  "TYPE_NAME": "define2_1_0.ODMcomplexTypeDefinitionDescription",
                  "translatedText": [
                    {
                      "TYPE_NAME": "define2_1_0.ODMcomplexTypeDefinitionTranslatedText",
                      "lang": "en",
                      "value": "Sex"
                    }
                  ]
                },
                "codeListRef": {
                  "TYPE_NAME": "define2_1_0.ODMcomplexTypeDefinitionCodeListRef",
                  "codeListOID": "SEX"
                }
              },
              {
                "TYPE_NAME": "define2_1_0.ODMcomplexTypeDefinitionItemDef",
                "oid": "ADAE.SAFFL",
                "name": "SAFFL",
                "dataType": "text",
                "length": 1,
                "description": {
                  "TYPE_NAME": "define2_1_0.ODMcomplexTypeDefinitionDescription",
                  "translatedText": [
                    {
                      "TYPE_NAME": "define2_1_0.ODMcomplexTypeDefinitionTranslatedText",
                      "lang": "en",
                      "value": "Safety Population Flag"
                    }
                  ]
                },
                "codeListRef": {
                  "TYPE_NAME": "define2_1_0.ODMcomplexTypeDefinitionCodeListRef",
                  "codeListOID": "YN"
                }
              },
              {
                "TYPE_NAME": "define2_1_0.ODMcomplexTypeDefinitionItemDef",
                "oid": "ADAE.TRTSDT",
                "name": "TRTSDT",
                "dataType": "integer",
                "length": 8,
                "description": {
                  "TYPE_NAME": "define2_1_0.ODMcomplexTypeDefinitionDescription",
                  "translatedText": [
                    {
                      "TYPE_NAME": "define2_1_0.ODMcomplexTypeDefinitionTranslatedText",
                      "lang": "en",
                      "value": "Date of First Exposure to Treatment"
                    }
                  ]
                }
              },
              {
                "TYPE_NAME": "define2_1_0.ODMcomplexTypeDefinitionItemDef",
                "oid": "ADAE.TRTEDT",
                "name": "TRTEDT",
                "dataType": "integer",
                "length": 8,
                "description": {
                  "TYPE_NAME": "define2_1_0.ODMcomplexTypeDefinitionDescription",
                  "translatedText": [
                    {
                      "TYPE_NAME": "define2_1_0.ODMcomplexTypeDefinitionTranslatedText",
                      "lang": "en",
                      "value": "Date of Last Exposure to Treatment"
                    }
                  ]
                }
              },
              {
                "TYPE_NAME": "define2_1_0.ODMcomplexTypeDefinitionItemDef",
                "oid": "ADAE.ASTDT",
                "name": "ASTDT",
                "dataType": "integer",
                "length": 8,
                "description": {
                  "TYPE_NAME": "define2_1_0.ODMcomplexTypeDefinitionDescription",
                  "translatedText": [
                    {
                      "TYPE_NAME": "define2_1_0.ODMcomplexTypeDefinitionTranslatedText",
                      "lang": "en",
                      "value": "Analysis Start Date"
                    }
                  ]
                }
              },
              {
                "TYPE_NAME": "define2_1_0.ODMcomplexTypeDefinitionItemDef",
                "oid": "ADAE.ASTDTF",
                "name": "ASTDTF",
                "dataType": "text",
                "length": 1,
                "description": {
                  "TYPE_NAME": "define2_1_0.ODMcomplexTypeDefinitionDescription",
                  "translatedText": [
                    {
                      "TYPE_NAME": "define2_1_0.ODMcomplexTypeDefinitionTranslatedText",
                      "lang": "en",
                      "value": "Analysis Start Date Imputation Flag"
                    }
                  ]
                },
                "codeListRef": {
                  "TYPE_NAME": "define2_1_0.ODMcomplexTypeDefinitionCodeListRef",
                  "codeListOID": "DMY"
                }
              },
              {
                "TYPE_NAME": "define2_1_0.ODMcomplexTypeDefinitionItemDef",
                "oid": "ADAE.ASTDY",
                "name": "ASTDY",
                "dataType": "integer",
                "length": 8,
                "description": {
                  "TYPE_NAME": "define2_1_0.ODMcomplexTypeDefinitionDescription",
                  "translatedText": [
                    {
                      "TYPE_NAME": "define2_1_0.ODMcomplexTypeDefinitionTranslatedText",
                      "lang": "en",
                      "value": "Analysis Start Relative Day"
                    }
                  ]
                }
              },
              {
                "TYPE_NAME": "define2_1_0.ODMcomplexTypeDefinitionItemDef",
                "oid": "ADAE.AENDT",
                "name": "AENDT",
                "dataType": "integer",
                "length": 8,
                "description": {
                  "TYPE_NAME": "define2_1_0.ODMcomplexTypeDefinitionDescription",
                  "translatedText": [
                    {
                      "TYPE_NAME": "define2_1_0.ODMcomplexTypeDefinitionTranslatedText",
                      "lang": "en",
                      "value": "Analysis End Date"
                    }
                  ]
                }
              },
              {
                "TYPE_NAME": "define2_1_0.ODMcomplexTypeDefinitionItemDef",
                "oid": "ADAE.AENDY",
                "name": "AENDY",
                "dataType": "integer",
                "length": 8,
                "description": {
                  "TYPE_NAME": "define2_1_0.ODMcomplexTypeDefinitionDescription",
                  "translatedText": [
                    {
                      "TYPE_NAME": "define2_1_0.ODMcomplexTypeDefinitionTranslatedText",
                      "lang": "en",
                      "value": "Analysis End Relative Day"
                    }
                  ]
                }
              },
              {
                "TYPE_NAME": "define2_1_0.ODMcomplexTypeDefinitionItemDef",
                "oid": "ADAE.ADURN",
                "name": "ADURN",
                "dataType": "integer",
                "length": 8,
                "description": {
                  "TYPE_NAME": "define2_1_0.ODMcomplexTypeDefinitionDescription",
                  "translatedText": [
                    {
                      "TYPE_NAME": "define2_1_0.ODMcomplexTypeDefinitionTranslatedText",
                      "lang": "en",
                      "value": "AE Duration (N)"
                    }
                  ]
                }
              },
              {
                "TYPE_NAME": "define2_1_0.ODMcomplexTypeDefinitionItemDef",
                "oid": "ADAE.ADURU",
                "name": "ADURU",
                "dataType": "text",
                "length": 3,
                "description": {
                  "TYPE_NAME": "define2_1_0.ODMcomplexTypeDefinitionDescription",
                  "translatedText": [
                    {
                      "TYPE_NAME": "define2_1_0.ODMcomplexTypeDefinitionTranslatedText",
                      "lang": "en",
                      "value": "AE Duration Units"
                    }
                  ]
                }
              },
              {
                "TYPE_NAME": "define2_1_0.ODMcomplexTypeDefinitionItemDef",
                "oid": "ADAE.AETERM",
                "name": "AETERM",
                "dataType": "text",
                "length": 46,
                "description": {
                  "TYPE_NAME": "define2_1_0.ODMcomplexTypeDefinitionDescription",
                  "translatedText": [
                    {
                      "TYPE_NAME": "define2_1_0.ODMcomplexTypeDefinitionTranslatedText",
                      "lang": "en",
                      "value": "Reported Term for the Adverse Event"
                    }
                  ]
                }
              },
              {
                "TYPE_NAME": "define2_1_0.ODMcomplexTypeDefinitionItemDef",
                "oid": "ADAE.AELLT",
                "name": "AELLT",
                "dataType": "text",
                "length": 46,
                "description": {
                  "TYPE_NAME": "define2_1_0.ODMcomplexTypeDefinitionDescription",
                  "translatedText": [
                    {
                      "TYPE_NAME": "define2_1_0.ODMcomplexTypeDefinitionTranslatedText",
                      "lang": "en",
                      "value": "Lowest Level Term"
                    }
                  ]
                },
                "codeListRef": {
                  "TYPE_NAME": "define2_1_0.ODMcomplexTypeDefinitionCodeListRef",
                  "codeListOID": "AEDICT"
                }
              },
              {
                "TYPE_NAME": "define2_1_0.ODMcomplexTypeDefinitionItemDef",
                "oid": "ADAE.AELLTCD",
                "name": "AELLTCD",
                "dataType": "integer",
                "length": 8,
                "description": {
                  "TYPE_NAME": "define2_1_0.ODMcomplexTypeDefinitionDescription",
                  "translatedText": [
                    {
                      "TYPE_NAME": "define2_1_0.ODMcomplexTypeDefinitionTranslatedText",
                      "lang": "en",
                      "value": "Lowest Level Term Code"
                    }
                  ]
                }
              },
              {
                "TYPE_NAME": "define2_1_0.ODMcomplexTypeDefinitionItemDef",
                "oid": "ADAE.AEDECOD",
                "name": "AEDECOD",
                "dataType": "text",
                "length": 46,
                "description": {
                  "TYPE_NAME": "define2_1_0.ODMcomplexTypeDefinitionDescription",
                  "translatedText": [
                    {
                      "TYPE_NAME": "define2_1_0.ODMcomplexTypeDefinitionTranslatedText",
                      "lang": "en",
                      "value": "Dictionary-Derived Term"
                    }
                  ]
                },
                "codeListRef": {
                  "TYPE_NAME": "define2_1_0.ODMcomplexTypeDefinitionCodeListRef",
                  "codeListOID": "AEDICT"
                }
              },
              {
                "TYPE_NAME": "define2_1_0.ODMcomplexTypeDefinitionItemDef",
                "oid": "ADAE.AEPTCD",
                "name": "AEPTCD",
                "dataType": "integer",
                "length": 8,
                "description": {
                  "TYPE_NAME": "define2_1_0.ODMcomplexTypeDefinitionDescription",
                  "translatedText": [
                    {
                      "TYPE_NAME": "define2_1_0.ODMcomplexTypeDefinitionTranslatedText",
                      "lang": "en",
                      "value": "Preferred Term Code"
                    }
                  ]
                }
              },
              {
                "TYPE_NAME": "define2_1_0.ODMcomplexTypeDefinitionItemDef",
                "oid": "ADAE.AEHLT",
                "name": "AEHLT",
                "dataType": "text",
                "length": 8,
                "description": {
                  "TYPE_NAME": "define2_1_0.ODMcomplexTypeDefinitionDescription",
                  "translatedText": [
                    {
                      "TYPE_NAME": "define2_1_0.ODMcomplexTypeDefinitionTranslatedText",
                      "lang": "en",
                      "value": "High Level Term"
                    }
                  ]
                },
                "codeListRef": {
                  "TYPE_NAME": "define2_1_0.ODMcomplexTypeDefinitionCodeListRef",
                  "codeListOID": "AEDICT"
                }
              },
              {
                "TYPE_NAME": "define2_1_0.ODMcomplexTypeDefinitionItemDef",
                "oid": "ADAE.AEHLTCD",
                "name": "AEHLTCD",
                "dataType": "integer",
                "length": 8,
                "description": {
                  "TYPE_NAME": "define2_1_0.ODMcomplexTypeDefinitionDescription",
                  "translatedText": [
                    {
                      "TYPE_NAME": "define2_1_0.ODMcomplexTypeDefinitionTranslatedText",
                      "lang": "en",
                      "value": "High Level Term Code"
                    }
                  ]
                }
              },
              {
                "TYPE_NAME": "define2_1_0.ODMcomplexTypeDefinitionItemDef",
                "oid": "ADAE.AEHLGT",
                "name": "AEHLGT",
                "dataType": "text",
                "length": 9,
                "description": {
                  "TYPE_NAME": "define2_1_0.ODMcomplexTypeDefinitionDescription",
                  "translatedText": [
                    {
                      "TYPE_NAME": "define2_1_0.ODMcomplexTypeDefinitionTranslatedText",
                      "lang": "en",
                      "value": "High Level Group Term"
                    }
                  ]
                },
                "codeListRef": {
                  "TYPE_NAME": "define2_1_0.ODMcomplexTypeDefinitionCodeListRef",
                  "codeListOID": "AEDICT"
                }
              },
              {
                "TYPE_NAME": "define2_1_0.ODMcomplexTypeDefinitionItemDef",
                "oid": "ADAE.AEHLGTCD",
                "name": "AEHLGTCD",
                "dataType": "integer",
                "length": 8,
                "description": {
                  "TYPE_NAME": "define2_1_0.ODMcomplexTypeDefinitionDescription",
                  "translatedText": [
                    {
                      "TYPE_NAME": "define2_1_0.ODMcomplexTypeDefinitionTranslatedText",
                      "lang": "en",
                      "value": "High Level Group Term Code"
                    }
                  ]
                }
              },
              {
                "TYPE_NAME": "define2_1_0.ODMcomplexTypeDefinitionItemDef",
                "oid": "ADAE.AEBODSYS",
                "name": "AEBODSYS",
                "dataType": "text",
                "length": 67,
                "description": {
                  "TYPE_NAME": "define2_1_0.ODMcomplexTypeDefinitionDescription",
                  "translatedText": [
                    {
                      "TYPE_NAME": "define2_1_0.ODMcomplexTypeDefinitionTranslatedText",
                      "lang": "en",
                      "value": "Body System or Organ Class"
                    }
                  ]
                },
                "codeListRef": {
                  "TYPE_NAME": "define2_1_0.ODMcomplexTypeDefinitionCodeListRef",
                  "codeListOID": "AEDICT"
                }
              },
              {
                "TYPE_NAME": "define2_1_0.ODMcomplexTypeDefinitionItemDef",
                "oid": "ADAE.AESOC",
                "name": "AESOC",
                "dataType": "text",
                "length": 67,
                "description": {
                  "TYPE_NAME": "define2_1_0.ODMcomplexTypeDefinitionDescription",
                  "translatedText": [
                    {
                      "TYPE_NAME": "define2_1_0.ODMcomplexTypeDefinitionTranslatedText",
                      "lang": "en",
                      "value": "Primary System Organ Class"
                    }
                  ]
                },
                "codeListRef": {
                  "TYPE_NAME": "define2_1_0.ODMcomplexTypeDefinitionCodeListRef",
                  "codeListOID": "AEDICT"
                }
              },
              {
                "TYPE_NAME": "define2_1_0.ODMcomplexTypeDefinitionItemDef",
                "oid": "ADAE.AESOCCD",
                "name": "AESOCCD",
                "dataType": "integer",
                "length": 8,
                "description": {
                  "TYPE_NAME": "define2_1_0.ODMcomplexTypeDefinitionDescription",
                  "translatedText": [
                    {
                      "TYPE_NAME": "define2_1_0.ODMcomplexTypeDefinitionTranslatedText",
                      "lang": "en",
                      "value": "Primary System Organ Class Code"
                    }
                  ]
                }
              },
              {
                "TYPE_NAME": "define2_1_0.ODMcomplexTypeDefinitionItemDef",
                "oid": "ADAE.AESEV",
                "name": "AESEV",
                "dataType": "text",
                "length": 8,
                "description": {
                  "TYPE_NAME": "define2_1_0.ODMcomplexTypeDefinitionDescription",
                  "translatedText": [
                    {
                      "TYPE_NAME": "define2_1_0.ODMcomplexTypeDefinitionTranslatedText",
                      "lang": "en",
                      "value": "Severity/Intensity"
                    }
                  ]
                },
                "codeListRef": {
                  "TYPE_NAME": "define2_1_0.ODMcomplexTypeDefinitionCodeListRef",
                  "codeListOID": "SEV"
                }
              },
              {
                "TYPE_NAME": "define2_1_0.ODMcomplexTypeDefinitionItemDef",
                "oid": "ADAE.AESER",
                "name": "AESER",
                "dataType": "text",
                "length": 1,
                "description": {
                  "TYPE_NAME": "define2_1_0.ODMcomplexTypeDefinitionDescription",
                  "translatedText": [
                    {
                      "TYPE_NAME": "define2_1_0.ODMcomplexTypeDefinitionTranslatedText",
                      "lang": "en",
                      "value": "Serious Event"
                    }
                  ]
                },
                "codeListRef": {
                  "TYPE_NAME": "define2_1_0.ODMcomplexTypeDefinitionCodeListRef",
                  "codeListOID": "YN"
                }
              },
              {
                "TYPE_NAME": "define2_1_0.ODMcomplexTypeDefinitionItemDef",
                "oid": "ADAE.AESCAN",
                "name": "AESCAN",
                "dataType": "text",
                "length": 1,
                "description": {
                  "TYPE_NAME": "define2_1_0.ODMcomplexTypeDefinitionDescription",
                  "translatedText": [
                    {
                      "TYPE_NAME": "define2_1_0.ODMcomplexTypeDefinitionTranslatedText",
                      "lang": "en",
                      "value": "Involves Cancer"
                    }
                  ]
                },
                "codeListRef": {
                  "TYPE_NAME": "define2_1_0.ODMcomplexTypeDefinitionCodeListRef",
                  "codeListOID": "YN"
                }
              },
              {
                "TYPE_NAME": "define2_1_0.ODMcomplexTypeDefinitionItemDef",
                "oid": "ADAE.AESCONG",
                "name": "AESCONG",
                "dataType": "text",
                "length": 1,
                "description": {
                  "TYPE_NAME": "define2_1_0.ODMcomplexTypeDefinitionDescription",
                  "translatedText": [
                    {
                      "TYPE_NAME": "define2_1_0.ODMcomplexTypeDefinitionTranslatedText",
                      "lang": "en",
                      "value": "Congenital Anomaly or Birth Defect"
                    }
                  ]
                },
                "codeListRef": {
                  "TYPE_NAME": "define2_1_0.ODMcomplexTypeDefinitionCodeListRef",
                  "codeListOID": "YN"
                }
              },
              {
                "TYPE_NAME": "define2_1_0.ODMcomplexTypeDefinitionItemDef",
                "oid": "ADAE.AESDISAB",
                "name": "AESDISAB",
                "dataType": "text",
                "length": 1,
                "description": {
                  "TYPE_NAME": "define2_1_0.ODMcomplexTypeDefinitionDescription",
                  "translatedText": [
                    {
                      "TYPE_NAME": "define2_1_0.ODMcomplexTypeDefinitionTranslatedText",
                      "lang": "en",
                      "value": "Persist or Signif Disability/Incapacity"
                    }
                  ]
                },
                "codeListRef": {
                  "TYPE_NAME": "define2_1_0.ODMcomplexTypeDefinitionCodeListRef",
                  "codeListOID": "YN"
                }
              },
              {
                "TYPE_NAME": "define2_1_0.ODMcomplexTypeDefinitionItemDef",
                "oid": "ADAE.AESDTH",
                "name": "AESDTH",
                "dataType": "text",
                "length": 1,
                "description": {
                  "TYPE_NAME": "define2_1_0.ODMcomplexTypeDefinitionDescription",
                  "translatedText": [
                    {
                      "TYPE_NAME": "define2_1_0.ODMcomplexTypeDefinitionTranslatedText",
                      "lang": "en",
                      "value": "Results in Death"
                    }
                  ]
                },
                "codeListRef": {
                  "TYPE_NAME": "define2_1_0.ODMcomplexTypeDefinitionCodeListRef",
                  "codeListOID": "YN"
                }
              },
              {
                "TYPE_NAME": "define2_1_0.ODMcomplexTypeDefinitionItemDef",
                "oid": "ADAE.AESHOSP",
                "name": "AESHOSP",
                "dataType": "text",
                "length": 1,
                "description": {
                  "TYPE_NAME": "define2_1_0.ODMcomplexTypeDefinitionDescription",
                  "translatedText": [
                    {
                      "TYPE_NAME": "define2_1_0.ODMcomplexTypeDefinitionTranslatedText",
                      "lang": "en",
                      "value": "Requires or Prolongs Hospitalization"
                    }
                  ]
                },
                "codeListRef": {
                  "TYPE_NAME": "define2_1_0.ODMcomplexTypeDefinitionCodeListRef",
                  "codeListOID": "YN"
                }
              },
              {
                "TYPE_NAME": "define2_1_0.ODMcomplexTypeDefinitionItemDef",
                "oid": "ADAE.AESLIFE",
                "name": "AESLIFE",
                "dataType": "text",
                "length": 1,
                "description": {
                  "TYPE_NAME": "define2_1_0.ODMcomplexTypeDefinitionDescription",
                  "translatedText": [
                    {
                      "TYPE_NAME": "define2_1_0.ODMcomplexTypeDefinitionTranslatedText",
                      "lang": "en",
                      "value": "Is Life Threatening"
                    }
                  ]
                },
                "codeListRef": {
                  "TYPE_NAME": "define2_1_0.ODMcomplexTypeDefinitionCodeListRef",
                  "codeListOID": "YN"
                }
              },
              {
                "TYPE_NAME": "define2_1_0.ODMcomplexTypeDefinitionItemDef",
                "oid": "ADAE.AESOD",
                "name": "AESOD",
                "dataType": "text",
                "length": 1,
                "description": {
                  "TYPE_NAME": "define2_1_0.ODMcomplexTypeDefinitionDescription",
                  "translatedText": [
                    {
                      "TYPE_NAME": "define2_1_0.ODMcomplexTypeDefinitionTranslatedText",
                      "lang": "en",
                      "value": "Occurred with Overdose"
                    }
                  ]
                },
                "codeListRef": {
                  "TYPE_NAME": "define2_1_0.ODMcomplexTypeDefinitionCodeListRef",
                  "codeListOID": "YN"
                }
              },
              {
                "TYPE_NAME": "define2_1_0.ODMcomplexTypeDefinitionItemDef",
                "oid": "ADAE.AEREL",
                "name": "AEREL",
                "dataType": "text",
                "length": 8,
                "description": {
                  "TYPE_NAME": "define2_1_0.ODMcomplexTypeDefinitionDescription",
                  "translatedText": [
                    {
                      "TYPE_NAME": "define2_1_0.ODMcomplexTypeDefinitionTranslatedText",
                      "lang": "en",
                      "value": "Causality"
                    }
                  ]
                },
                "codeListRef": {
                  "TYPE_NAME": "define2_1_0.ODMcomplexTypeDefinitionCodeListRef",
                  "codeListOID": "AECAUS"
                }
              },
              {
                "TYPE_NAME": "define2_1_0.ODMcomplexTypeDefinitionItemDef",
                "oid": "ADAE.AEACN",
                "name": "AEACN",
                "dataType": "text",
                "length": 1,
                "description": {
                  "TYPE_NAME": "define2_1_0.ODMcomplexTypeDefinitionDescription",
                  "translatedText": [
                    {
                      "TYPE_NAME": "define2_1_0.ODMcomplexTypeDefinitionTranslatedText",
                      "lang": "en",
                      "value": "Action Taken with Study Treatment"
                    }
                  ]
                }
              },
              {
                "TYPE_NAME": "define2_1_0.ODMcomplexTypeDefinitionItemDef",
                "oid": "ADAE.AEOUT",
                "name": "AEOUT",
                "dataType": "text",
                "length": 26,
                "description": {
                  "TYPE_NAME": "define2_1_0.ODMcomplexTypeDefinitionDescription",
                  "translatedText": [
                    {
                      "TYPE_NAME": "define2_1_0.ODMcomplexTypeDefinitionTranslatedText",
                      "lang": "en",
                      "value": "Outcome of Adverse Event"
                    }
                  ]
                },
                "codeListRef": {
                  "TYPE_NAME": "define2_1_0.ODMcomplexTypeDefinitionCodeListRef",
                  "codeListOID": "OUT"
                }
              },
              {
                "TYPE_NAME": "define2_1_0.ODMcomplexTypeDefinitionItemDef",
                "oid": "ADAE.AESEQ",
                "name": "AESEQ",
                "dataType": "integer",
                "length": 8,
                "description": {
                  "TYPE_NAME": "define2_1_0.ODMcomplexTypeDefinitionDescription",
                  "translatedText": [
                    {
                      "TYPE_NAME": "define2_1_0.ODMcomplexTypeDefinitionTranslatedText",
                      "lang": "en",
                      "value": "Sequence Number"
                    }
                  ]
                }
              },
              {
                "TYPE_NAME": "define2_1_0.ODMcomplexTypeDefinitionItemDef",
                "oid": "ADAE.TRTEMFL",
                "name": "TRTEMFL",
                "dataType": "text",
                "length": 1,
                "description": {
                  "TYPE_NAME": "define2_1_0.ODMcomplexTypeDefinitionDescription",
                  "translatedText": [
                    {
                      "TYPE_NAME": "define2_1_0.ODMcomplexTypeDefinitionTranslatedText",
                      "lang": "en",
                      "value": "Treatment Emergent Analysis Flag"
                    }
                  ]
                },
                "codeListRef": {
                  "TYPE_NAME": "define2_1_0.ODMcomplexTypeDefinitionCodeListRef",
                  "codeListOID": "YN"
                }
              },
              {
                "TYPE_NAME": "define2_1_0.ODMcomplexTypeDefinitionItemDef",
                "oid": "ADAE.AOCCFL",
                "name": "AOCCFL",
                "dataType": "text",
                "length": 1,
                "description": {
                  "TYPE_NAME": "define2_1_0.ODMcomplexTypeDefinitionDescription",
                  "translatedText": [
                    {
                      "TYPE_NAME": "define2_1_0.ODMcomplexTypeDefinitionTranslatedText",
                      "lang": "en",
                      "value": "1st Occurrence of Any AE Flag"
                    }
                  ]
                },
                "codeListRef": {
                  "TYPE_NAME": "define2_1_0.ODMcomplexTypeDefinitionCodeListRef",
                  "codeListOID": "Y_BLANK"
                }
              },
              {
                "TYPE_NAME": "define2_1_0.ODMcomplexTypeDefinitionItemDef",
                "oid": "ADAE.AOCCSFL",
                "name": "AOCCSFL",
                "dataType": "text",
                "length": 1,
                "description": {
                  "TYPE_NAME": "define2_1_0.ODMcomplexTypeDefinitionDescription",
                  "translatedText": [
                    {
                      "TYPE_NAME": "define2_1_0.ODMcomplexTypeDefinitionTranslatedText",
                      "lang": "en",
                      "value": "1st Occurrence of SOC Flag"
                    }
                  ]
                },
                "codeListRef": {
                  "TYPE_NAME": "define2_1_0.ODMcomplexTypeDefinitionCodeListRef",
                  "codeListOID": "Y_BLANK"
                }
              },
              {
                "TYPE_NAME": "define2_1_0.ODMcomplexTypeDefinitionItemDef",
                "oid": "ADAE.AOCCPFL",
                "name": "AOCCPFL",
                "dataType": "text",
                "length": 1,
                "description": {
                  "TYPE_NAME": "define2_1_0.ODMcomplexTypeDefinitionDescription",
                  "translatedText": [
                    {
                      "TYPE_NAME": "define2_1_0.ODMcomplexTypeDefinitionTranslatedText",
                      "lang": "en",
                      "value": "1st Occurrence of Preferred Term Flag"
                    }
                  ]
                },
                "codeListRef": {
                  "TYPE_NAME": "define2_1_0.ODMcomplexTypeDefinitionCodeListRef",
                  "codeListOID": "Y_BLANK"
                }
              },
              {
                "TYPE_NAME": "define2_1_0.ODMcomplexTypeDefinitionItemDef",
                "oid": "ADAE.AOCC02FL",
                "name": "AOCC02FL",
                "dataType": "text",
                "length": 1,
                "description": {
                  "TYPE_NAME": "define2_1_0.ODMcomplexTypeDefinitionDescription",
                  "translatedText": [
                    {
                      "TYPE_NAME": "define2_1_0.ODMcomplexTypeDefinitionTranslatedText",
                      "lang": "en",
                      "value": "1st Occurrence 02 Flag for Serious"
                    }
                  ]
                },
                "codeListRef": {
                  "TYPE_NAME": "define2_1_0.ODMcomplexTypeDefinitionCodeListRef",
                  "codeListOID": "Y_BLANK"
                }
              },
              {
                "TYPE_NAME": "define2_1_0.ODMcomplexTypeDefinitionItemDef",
                "oid": "ADAE.AOCC03FL",
                "name": "AOCC03FL",
                "dataType": "text",
                "length": 1,
                "description": {
                  "TYPE_NAME": "define2_1_0.ODMcomplexTypeDefinitionDescription",
                  "translatedText": [
                    {
                      "TYPE_NAME": "define2_1_0.ODMcomplexTypeDefinitionTranslatedText",
                      "lang": "en",
                      "value": "1st Occurrence 03 Flag for Serious SOC"
                    }
                  ]
                },
                "codeListRef": {
                  "TYPE_NAME": "define2_1_0.ODMcomplexTypeDefinitionCodeListRef",
                  "codeListOID": "Y_BLANK"
                }
              },
              {
                "TYPE_NAME": "define2_1_0.ODMcomplexTypeDefinitionItemDef",
                "oid": "ADAE.AOCC04FL",
                "name": "AOCC04FL",
                "dataType": "text",
                "length": 1,
                "description": {
                  "TYPE_NAME": "define2_1_0.ODMcomplexTypeDefinitionDescription",
                  "translatedText": [
                    {
                      "TYPE_NAME": "define2_1_0.ODMcomplexTypeDefinitionTranslatedText",
                      "lang": "en",
                      "value": "1st Occurrence 04 Flag for Serious PT"
                    }
                  ]
                },
                "codeListRef": {
                  "TYPE_NAME": "define2_1_0.ODMcomplexTypeDefinitionCodeListRef",
                  "codeListOID": "Y_BLANK"
                }
              },
              {
                "TYPE_NAME": "define2_1_0.ODMcomplexTypeDefinitionItemDef",
                "oid": "ADAE.CQ01NAM",
                "name": "CQ01NAM",
                "dataType": "text",
                "length": 19,
                "description": {
                  "TYPE_NAME": "define2_1_0.ODMcomplexTypeDefinitionDescription",
                  "translatedText": [
                    {
                      "TYPE_NAME": "define2_1_0.ODMcomplexTypeDefinitionTranslatedText",
                      "lang": "en",
                      "value": "Customized Query 01 Name"
                    }
                  ]
                }
              },
              {
                "TYPE_NAME": "define2_1_0.ODMcomplexTypeDefinitionItemDef",
                "oid": "ADAE.AOCC01FL",
                "name": "AOCC01FL",
                "dataType": "text",
                "length": 1,
                "description": {
                  "TYPE_NAME": "define2_1_0.ODMcomplexTypeDefinitionDescription",
                  "translatedText": [
                    {
                      "TYPE_NAME": "define2_1_0.ODMcomplexTypeDefinitionTranslatedText",
                      "lang": "en",
                      "value": "1st Occurrence 01 Flag for CQ01"
                    }
                  ]
                },
                "codeListRef": {
                  "TYPE_NAME": "define2_1_0.ODMcomplexTypeDefinitionCodeListRef",
                  "codeListOID": "Y_BLANK"
                }
              },
              {
                "TYPE_NAME": "define2_1_0.ODMcomplexTypeDefinitionItemDef",
                "oid": "ADLBC.STUDYID",
                "name": "STUDYID",
                "dataType": "text",
                "length": 12,
                "description": {
                  "TYPE_NAME": "define2_1_0.ODMcomplexTypeDefinitionDescription",
                  "translatedText": [
                    {
                      "TYPE_NAME": "define2_1_0.ODMcomplexTypeDefinitionTranslatedText",
                      "lang": "en",
                      "value": "Study Identifier"
                    }
                  ]
                }
              },
              {
                "TYPE_NAME": "define2_1_0.ODMcomplexTypeDefinitionItemDef",
                "oid": "ADLBC.SUBJID",
                "name": "SUBJID",
                "dataType": "text",
                "length": 4,
                "description": {
                  "TYPE_NAME": "define2_1_0.ODMcomplexTypeDefinitionDescription",
                  "translatedText": [
                    {
                      "TYPE_NAME": "define2_1_0.ODMcomplexTypeDefinitionTranslatedText",
                      "lang": "en",
                      "value": "Subject Identifier for the Study"
                    }
                  ]
                }
              },
              {
                "TYPE_NAME": "define2_1_0.ODMcomplexTypeDefinitionItemDef",
                "oid": "ADLBC.USUBJID",
                "name": "USUBJID",
                "dataType": "text",
                "length": 11,
                "description": {
                  "TYPE_NAME": "define2_1_0.ODMcomplexTypeDefinitionDescription",
                  "translatedText": [
                    {
                      "TYPE_NAME": "define2_1_0.ODMcomplexTypeDefinitionTranslatedText",
                      "lang": "en",
                      "value": "Unique Subject Identifier"
                    }
                  ]
                }
              },
              {
                "TYPE_NAME": "define2_1_0.ODMcomplexTypeDefinitionItemDef",
                "oid": "ADLBC.TRTP",
                "name": "TRTP",
                "dataType": "text",
                "length": 20,
                "description": {
                  "TYPE_NAME": "define2_1_0.ODMcomplexTypeDefinitionDescription",
                  "translatedText": [
                    {
                      "TYPE_NAME": "define2_1_0.ODMcomplexTypeDefinitionTranslatedText",
                      "lang": "en",
                      "value": "Planned Treatment"
                    }
                  ]
                },
                "codeListRef": {
                  "TYPE_NAME": "define2_1_0.ODMcomplexTypeDefinitionCodeListRef",
                  "codeListOID": "ARM"
                }
              },
              {
                "TYPE_NAME": "define2_1_0.ODMcomplexTypeDefinitionItemDef",
                "oid": "ADLBC.TRTPN",
                "name": "TRTPN",
                "dataType": "integer",
                "length": 8,
                "description": {
                  "TYPE_NAME": "define2_1_0.ODMcomplexTypeDefinitionDescription",
                  "translatedText": [
                    {
                      "TYPE_NAME": "define2_1_0.ODMcomplexTypeDefinitionTranslatedText",
                      "lang": "en",
                      "value": "Planned Treatment (N)"
                    }
                  ]
                },
                "codeListRef": {
                  "TYPE_NAME": "define2_1_0.ODMcomplexTypeDefinitionCodeListRef",
                  "codeListOID": "ARMN"
                }
              },
              {
                "TYPE_NAME": "define2_1_0.ODMcomplexTypeDefinitionItemDef",
                "oid": "ADLBC.TRTA",
                "name": "TRTA",
                "dataType": "text",
                "length": 20,
                "description": {
                  "TYPE_NAME": "define2_1_0.ODMcomplexTypeDefinitionDescription",
                  "translatedText": [
                    {
                      "TYPE_NAME": "define2_1_0.ODMcomplexTypeDefinitionTranslatedText",
                      "lang": "en",
                      "value": "Actual Treatment"
                    }
                  ]
                },
                "codeListRef": {
                  "TYPE_NAME": "define2_1_0.ODMcomplexTypeDefinitionCodeListRef",
                  "codeListOID": "ARM"
                }
              },
              {
                "TYPE_NAME": "define2_1_0.ODMcomplexTypeDefinitionItemDef",
                "oid": "ADLBC.TRTAN",
                "name": "TRTAN",
                "dataType": "integer",
                "length": 8,
                "description": {
                  "TYPE_NAME": "define2_1_0.ODMcomplexTypeDefinitionDescription",
                  "translatedText": [
                    {
                      "TYPE_NAME": "define2_1_0.ODMcomplexTypeDefinitionTranslatedText",
                      "lang": "en",
                      "value": "Actual Treatment (N)"
                    }
                  ]
                },
                "codeListRef": {
                  "TYPE_NAME": "define2_1_0.ODMcomplexTypeDefinitionCodeListRef",
                  "codeListOID": "ARMN"
                }
              },
              {
                "TYPE_NAME": "define2_1_0.ODMcomplexTypeDefinitionItemDef",
                "oid": "ADLBC.TRTSDT",
                "name": "TRTSDT",
                "dataType": "integer",
                "length": 8,
                "description": {
                  "TYPE_NAME": "define2_1_0.ODMcomplexTypeDefinitionDescription",
                  "translatedText": [
                    {
                      "TYPE_NAME": "define2_1_0.ODMcomplexTypeDefinitionTranslatedText",
                      "lang": "en",
                      "value": "Date of First Exposure to Treatment"
                    }
                  ]
                }
              },
              {
                "TYPE_NAME": "define2_1_0.ODMcomplexTypeDefinitionItemDef",
                "oid": "ADLBC.TRTEDT",
                "name": "TRTEDT",
                "dataType": "integer",
                "length": 8,
                "description": {
                  "TYPE_NAME": "define2_1_0.ODMcomplexTypeDefinitionDescription",
                  "translatedText": [
                    {
                      "TYPE_NAME": "define2_1_0.ODMcomplexTypeDefinitionTranslatedText",
                      "lang": "en",
                      "value": "Date of Last Exposure to Treatment"
                    }
                  ]
                }
              },
              {
                "TYPE_NAME": "define2_1_0.ODMcomplexTypeDefinitionItemDef",
                "oid": "ADLBC.AGE",
                "name": "AGE",
                "dataType": "integer",
                "length": 8,
                "description": {
                  "TYPE_NAME": "define2_1_0.ODMcomplexTypeDefinitionDescription",
                  "translatedText": [
                    {
                      "TYPE_NAME": "define2_1_0.ODMcomplexTypeDefinitionTranslatedText",
                      "lang": "en",
                      "value": "Age"
                    }
                  ]
                }
              },
              {
                "TYPE_NAME": "define2_1_0.ODMcomplexTypeDefinitionItemDef",
                "oid": "ADLBC.AGEGR1",
                "name": "AGEGR1",
                "dataType": "text",
                "length": 5,
                "description": {
                  "TYPE_NAME": "define2_1_0.ODMcomplexTypeDefinitionDescription",
                  "translatedText": [
                    {
                      "TYPE_NAME": "define2_1_0.ODMcomplexTypeDefinitionTranslatedText",
                      "lang": "en",
                      "value": "Pooled Age Group 1"
                    }
                  ]
                },
                "codeListRef": {
                  "TYPE_NAME": "define2_1_0.ODMcomplexTypeDefinitionCodeListRef",
                  "codeListOID": "AGEGR1"
                }
              },
              {
                "TYPE_NAME": "define2_1_0.ODMcomplexTypeDefinitionItemDef",
                "oid": "ADLBC.AGEGR1N",
                "name": "AGEGR1N",
                "dataType": "integer",
                "length": 8,
                "description": {
                  "TYPE_NAME": "define2_1_0.ODMcomplexTypeDefinitionDescription",
                  "translatedText": [
                    {
                      "TYPE_NAME": "define2_1_0.ODMcomplexTypeDefinitionTranslatedText",
                      "lang": "en",
                      "value": "Pooled Age Group 1 (N)"
                    }
                  ]
                },
                "codeListRef": {
                  "TYPE_NAME": "define2_1_0.ODMcomplexTypeDefinitionCodeListRef",
                  "codeListOID": "AGEGR1N"
                }
              },
              {
                "TYPE_NAME": "define2_1_0.ODMcomplexTypeDefinitionItemDef",
                "oid": "ADLBC.RACE",
                "name": "RACE",
                "dataType": "text",
                "length": 32,
                "description": {
                  "TYPE_NAME": "define2_1_0.ODMcomplexTypeDefinitionDescription",
                  "translatedText": [
                    {
                      "TYPE_NAME": "define2_1_0.ODMcomplexTypeDefinitionTranslatedText",
                      "lang": "en",
                      "value": "Race"
                    }
                  ]
                },
                "codeListRef": {
                  "TYPE_NAME": "define2_1_0.ODMcomplexTypeDefinitionCodeListRef",
                  "codeListOID": "RACE"
                }
              },
              {
                "TYPE_NAME": "define2_1_0.ODMcomplexTypeDefinitionItemDef",
                "oid": "ADLBC.RACEN",
                "name": "RACEN",
                "dataType": "integer",
                "length": 8,
                "description": {
                  "TYPE_NAME": "define2_1_0.ODMcomplexTypeDefinitionDescription",
                  "translatedText": [
                    {
                      "TYPE_NAME": "define2_1_0.ODMcomplexTypeDefinitionTranslatedText",
                      "lang": "en",
                      "value": "Race (N)"
                    }
                  ]
                },
                "codeListRef": {
                  "TYPE_NAME": "define2_1_0.ODMcomplexTypeDefinitionCodeListRef",
                  "codeListOID": "RACEN"
                }
              },
              {
                "TYPE_NAME": "define2_1_0.ODMcomplexTypeDefinitionItemDef",
                "oid": "ADLBC.SEX",
                "name": "SEX",
                "dataType": "text",
                "length": 1,
                "description": {
                  "TYPE_NAME": "define2_1_0.ODMcomplexTypeDefinitionDescription",
                  "translatedText": [
                    {
                      "TYPE_NAME": "define2_1_0.ODMcomplexTypeDefinitionTranslatedText",
                      "lang": "en",
                      "value": "Sex"
                    }
                  ]
                },
                "codeListRef": {
                  "TYPE_NAME": "define2_1_0.ODMcomplexTypeDefinitionCodeListRef",
                  "codeListOID": "SEX"
                }
              },
              {
                "TYPE_NAME": "define2_1_0.ODMcomplexTypeDefinitionItemDef",
                "oid": "ADLBC.COMP24FL",
                "name": "COMP24FL",
                "dataType": "text",
                "length": 1,
                "description": {
                  "TYPE_NAME": "define2_1_0.ODMcomplexTypeDefinitionDescription",
                  "translatedText": [
                    {
                      "TYPE_NAME": "define2_1_0.ODMcomplexTypeDefinitionTranslatedText",
                      "lang": "en",
                      "value": "Completers of Week 24 Population Flag"
                    }
                  ]
                },
                "codeListRef": {
                  "TYPE_NAME": "define2_1_0.ODMcomplexTypeDefinitionCodeListRef",
                  "codeListOID": "YN"
                }
              },
              {
                "TYPE_NAME": "define2_1_0.ODMcomplexTypeDefinitionItemDef",
                "oid": "ADLBC.DSRAEFL",
                "name": "DSRAEFL",
                "dataType": "text",
                "length": 1,
                "description": {
                  "TYPE_NAME": "define2_1_0.ODMcomplexTypeDefinitionDescription",
                  "translatedText": [
                    {
                      "TYPE_NAME": "define2_1_0.ODMcomplexTypeDefinitionTranslatedText",
                      "lang": "en",
                      "value": "Discontinued due to AE?"
                    }
                  ]
                },
                "codeListRef": {
                  "TYPE_NAME": "define2_1_0.ODMcomplexTypeDefinitionCodeListRef",
                  "codeListOID": "YN"
                }
              },
              {
                "TYPE_NAME": "define2_1_0.ODMcomplexTypeDefinitionItemDef",
                "oid": "ADLBC.SAFFL",
                "name": "SAFFL",
                "dataType": "text",
                "length": 1,
                "description": {
                  "TYPE_NAME": "define2_1_0.ODMcomplexTypeDefinitionDescription",
                  "translatedText": [
                    {
                      "TYPE_NAME": "define2_1_0.ODMcomplexTypeDefinitionTranslatedText",
                      "lang": "en",
                      "value": "Safety Population Flag"
                    }
                  ]
                },
                "codeListRef": {
                  "TYPE_NAME": "define2_1_0.ODMcomplexTypeDefinitionCodeListRef",
                  "codeListOID": "YN"
                }
              },
              {
                "TYPE_NAME": "define2_1_0.ODMcomplexTypeDefinitionItemDef",
                "oid": "ADLBC.AVISIT",
                "name": "AVISIT",
                "dataType": "text",
                "length": 16,
                "description": {
                  "TYPE_NAME": "define2_1_0.ODMcomplexTypeDefinitionDescription",
                  "translatedText": [
                    {
                      "TYPE_NAME": "define2_1_0.ODMcomplexTypeDefinitionTranslatedText",
                      "lang": "en",
                      "value": "Analysis Visit"
                    }
                  ]
                },
                "codeListRef": {
                  "TYPE_NAME": "define2_1_0.ODMcomplexTypeDefinitionCodeListRef",
                  "codeListOID": "AVISIT"
                }
              },
              {
                "TYPE_NAME": "define2_1_0.ODMcomplexTypeDefinitionItemDef",
                "oid": "ADLBC.AVISITN",
                "name": "AVISITN",
                "dataType": "integer",
                "length": 8,
                "description": {
                  "TYPE_NAME": "define2_1_0.ODMcomplexTypeDefinitionDescription",
                  "translatedText": [
                    {
                      "TYPE_NAME": "define2_1_0.ODMcomplexTypeDefinitionTranslatedText",
                      "lang": "en",
                      "value": "Analysis Visit (N)"
                    }
                  ]
                },
                "codeListRef": {
                  "TYPE_NAME": "define2_1_0.ODMcomplexTypeDefinitionCodeListRef",
                  "codeListOID": "AVISITN"
                }
              },
              {
                "TYPE_NAME": "define2_1_0.ODMcomplexTypeDefinitionItemDef",
                "oid": "ADLBC.ADY",
                "name": "ADY",
                "dataType": "integer",
                "length": 8,
                "description": {
                  "TYPE_NAME": "define2_1_0.ODMcomplexTypeDefinitionDescription",
                  "translatedText": [
                    {
                      "TYPE_NAME": "define2_1_0.ODMcomplexTypeDefinitionTranslatedText",
                      "lang": "en",
                      "value": "Analysis Relative Day"
                    }
                  ]
                }
              },
              {
                "TYPE_NAME": "define2_1_0.ODMcomplexTypeDefinitionItemDef",
                "oid": "ADLBC.ADT",
                "name": "ADT",
                "dataType": "integer",
                "length": 8,
                "description": {
                  "TYPE_NAME": "define2_1_0.ODMcomplexTypeDefinitionDescription",
                  "translatedText": [
                    {
                      "TYPE_NAME": "define2_1_0.ODMcomplexTypeDefinitionTranslatedText",
                      "lang": "en",
                      "value": "Analysis Date"
                    }
                  ]
                }
              },
              {
                "TYPE_NAME": "define2_1_0.ODMcomplexTypeDefinitionItemDef",
                "oid": "ADLBC.VISIT",
                "name": "VISIT",
                "dataType": "text",
                "length": 19,
                "description": {
                  "TYPE_NAME": "define2_1_0.ODMcomplexTypeDefinitionDescription",
                  "translatedText": [
                    {
                      "TYPE_NAME": "define2_1_0.ODMcomplexTypeDefinitionTranslatedText",
                      "lang": "en",
                      "value": "Visit Name"
                    }
                  ]
                },
                "codeListRef": {
                  "TYPE_NAME": "define2_1_0.ODMcomplexTypeDefinitionCodeListRef",
                  "codeListOID": "VISIT"
                }
              },
              {
                "TYPE_NAME": "define2_1_0.ODMcomplexTypeDefinitionItemDef",
                "oid": "ADLBC.VISITNUM",
                "name": "VISITNUM",
                "dataType": "float",
                "length": 8,
                "significantDigits": 1,
                "description": {
                  "TYPE_NAME": "define2_1_0.ODMcomplexTypeDefinitionDescription",
                  "translatedText": [
                    {
                      "TYPE_NAME": "define2_1_0.ODMcomplexTypeDefinitionTranslatedText",
                      "lang": "en",
                      "value": "Visit Number"
                    }
                  ]
                },
                "codeListRef": {
                  "TYPE_NAME": "define2_1_0.ODMcomplexTypeDefinitionCodeListRef",
                  "codeListOID": "VISITNUM"
                }
              },
              {
                "TYPE_NAME": "define2_1_0.ODMcomplexTypeDefinitionItemDef",
                "oid": "ADLBC.PARAM",
                "name": "PARAM",
                "dataType": "text",
                "length": 100,
                "description": {
                  "TYPE_NAME": "define2_1_0.ODMcomplexTypeDefinitionDescription",
                  "translatedText": [
                    {
                      "TYPE_NAME": "define2_1_0.ODMcomplexTypeDefinitionTranslatedText",
                      "lang": "en",
                      "value": "Parameter"
                    }
                  ]
                },
                "codeListRef": {
                  "TYPE_NAME": "define2_1_0.ODMcomplexTypeDefinitionCodeListRef",
                  "codeListOID": "PARAM_ADLBC"
                }
              },
              {
                "TYPE_NAME": "define2_1_0.ODMcomplexTypeDefinitionItemDef",
                "oid": "ADLBC.PARAMCD",
                "name": "PARAMCD",
                "dataType": "text",
                "length": 8,
                "description": {
                  "TYPE_NAME": "define2_1_0.ODMcomplexTypeDefinitionDescription",
                  "translatedText": [
                    {
                      "TYPE_NAME": "define2_1_0.ODMcomplexTypeDefinitionTranslatedText",
                      "lang": "en",
                      "value": "Parameter Code"
                    }
                  ]
                },
                "codeListRef": {
                  "TYPE_NAME": "define2_1_0.ODMcomplexTypeDefinitionCodeListRef",
                  "codeListOID": "PARAMCD_ADLBC"
                }
              },
              {
                "TYPE_NAME": "define2_1_0.ODMcomplexTypeDefinitionItemDef",
                "oid": "ADLBC.PARAMN",
                "name": "PARAMN",
                "dataType": "integer",
                "length": 8,
                "description": {
                  "TYPE_NAME": "define2_1_0.ODMcomplexTypeDefinitionDescription",
                  "translatedText": [
                    {
                      "TYPE_NAME": "define2_1_0.ODMcomplexTypeDefinitionTranslatedText",
                      "lang": "en",
                      "value": "Parameter (N)"
                    }
                  ]
                },
                "codeListRef": {
                  "TYPE_NAME": "define2_1_0.ODMcomplexTypeDefinitionCodeListRef",
                  "codeListOID": "PARAMN_ADLBC"
                }
              },
              {
                "TYPE_NAME": "define2_1_0.ODMcomplexTypeDefinitionItemDef",
                "oid": "ADLBC.PARCAT1",
                "name": "PARCAT1",
                "dataType": "text",
                "length": 5,
                "description": {
                  "TYPE_NAME": "define2_1_0.ODMcomplexTypeDefinitionDescription",
                  "translatedText": [
                    {
                      "TYPE_NAME": "define2_1_0.ODMcomplexTypeDefinitionTranslatedText",
                      "lang": "en",
                      "value": "Parameter Category 1"
                    }
                  ]
                },
                "codeListRef": {
                  "TYPE_NAME": "define2_1_0.ODMcomplexTypeDefinitionCodeListRef",
                  "codeListOID": "ADLBCAT"
                }
              },
              {
                "TYPE_NAME": "define2_1_0.ODMcomplexTypeDefinitionItemDef",
                "oid": "ADLBC.AVAL",
                "name": "AVAL",
                "dataType": "float",
                "length": 8,
                "significantDigits": 5,
                "description": {
                  "TYPE_NAME": "define2_1_0.ODMcomplexTypeDefinitionDescription",
                  "translatedText": [
                    {
                      "TYPE_NAME": "define2_1_0.ODMcomplexTypeDefinitionTranslatedText",
                      "lang": "en",
                      "value": "Analysis Value"
                    }
                  ]
                }
              },
              {
                "TYPE_NAME": "define2_1_0.ODMcomplexTypeDefinitionItemDef",
                "oid": "ADLBC.BASE",
                "name": "BASE",
                "dataType": "float",
                "length": 8,
                "significantDigits": 5,
                "description": {
                  "TYPE_NAME": "define2_1_0.ODMcomplexTypeDefinitionDescription",
                  "translatedText": [
                    {
                      "TYPE_NAME": "define2_1_0.ODMcomplexTypeDefinitionTranslatedText",
                      "lang": "en",
                      "value": "Baseline Value"
                    }
                  ]
                }
              },
              {
                "TYPE_NAME": "define2_1_0.ODMcomplexTypeDefinitionItemDef",
                "oid": "ADLBC.CHG",
                "name": "CHG",
                "dataType": "float",
                "length": 8,
                "significantDigits": 5,
                "description": {
                  "TYPE_NAME": "define2_1_0.ODMcomplexTypeDefinitionDescription",
                  "translatedText": [
                    {
                      "TYPE_NAME": "define2_1_0.ODMcomplexTypeDefinitionTranslatedText",
                      "lang": "en",
                      "value": "Change from Baseline"
                    }
                  ]
                }
              },
              {
                "TYPE_NAME": "define2_1_0.ODMcomplexTypeDefinitionItemDef",
                "oid": "ADLBC.A1LO",
                "name": "A1LO",
                "dataType": "float",
                "length": 8,
                "significantDigits": 5,
                "description": {
                  "TYPE_NAME": "define2_1_0.ODMcomplexTypeDefinitionDescription",
                  "translatedText": [
                    {
                      "TYPE_NAME": "define2_1_0.ODMcomplexTypeDefinitionTranslatedText",
                      "lang": "en",
                      "value": "Analysis Range 1 Lower Limit"
                    }
                  ]
                }
              },
              {
                "TYPE_NAME": "define2_1_0.ODMcomplexTypeDefinitionItemDef",
                "oid": "ADLBC.A1HI",
                "name": "A1HI",
                "dataType": "float",
                "length": 8,
                "significantDigits": 5,
                "description": {
                  "TYPE_NAME": "define2_1_0.ODMcomplexTypeDefinitionDescription",
                  "translatedText": [
                    {
                      "TYPE_NAME": "define2_1_0.ODMcomplexTypeDefinitionTranslatedText",
                      "lang": "en",
                      "value": "Analysis Range 1 Upper Limit"
                    }
                  ]
                }
              },
              {
                "TYPE_NAME": "define2_1_0.ODMcomplexTypeDefinitionItemDef",
                "oid": "ADLBC.R2A1LO",
                "name": "R2A1LO",
                "dataType": "float",
                "length": 8,
                "significantDigits": 1,
                "description": {
                  "TYPE_NAME": "define2_1_0.ODMcomplexTypeDefinitionDescription",
                  "translatedText": [
                    {
                      "TYPE_NAME": "define2_1_0.ODMcomplexTypeDefinitionTranslatedText",
                      "lang": "en",
                      "value": "Ratio to Analysis Range 1 Lower Limit"
                    }
                  ]
                }
              },
              {
                "TYPE_NAME": "define2_1_0.ODMcomplexTypeDefinitionItemDef",
                "oid": "ADLBC.R2A1HI",
                "name": "R2A1HI",
                "dataType": "float",
                "length": 8,
                "significantDigits": 1,
                "description": {
                  "TYPE_NAME": "define2_1_0.ODMcomplexTypeDefinitionDescription",
                  "translatedText": [
                    {
                      "TYPE_NAME": "define2_1_0.ODMcomplexTypeDefinitionTranslatedText",
                      "lang": "en",
                      "value": "Ratio to Analysis Range 1 Upper Limit"
                    }
                  ]
                }
              },
              {
                "TYPE_NAME": "define2_1_0.ODMcomplexTypeDefinitionItemDef",
                "oid": "ADLBC.BR2A1LO",
                "name": "BR2A1LO",
                "dataType": "float",
                "length": 8,
                "significantDigits": 1,
                "description": {
                  "TYPE_NAME": "define2_1_0.ODMcomplexTypeDefinitionDescription",
                  "translatedText": [
                    {
                      "TYPE_NAME": "define2_1_0.ODMcomplexTypeDefinitionTranslatedText",
                      "lang": "en",
                      "value": "Base Ratio to Analysis Range 1 Lower Lim"
                    }
                  ]
                }
              },
              {
                "TYPE_NAME": "define2_1_0.ODMcomplexTypeDefinitionItemDef",
                "oid": "ADLBC.BR2A1HI",
                "name": "BR2A1HI",
                "dataType": "float",
                "length": 8,
                "significantDigits": 1,
                "description": {
                  "TYPE_NAME": "define2_1_0.ODMcomplexTypeDefinitionDescription",
                  "translatedText": [
                    {
                      "TYPE_NAME": "define2_1_0.ODMcomplexTypeDefinitionTranslatedText",
                      "lang": "en",
                      "value": "Base Ratio to Analysis Range 1 Upper Lim"
                    }
                  ]
                }
              },
              {
                "TYPE_NAME": "define2_1_0.ODMcomplexTypeDefinitionItemDef",
                "oid": "ADLBC.ANL01FL",
                "name": "ANL01FL",
                "dataType": "text",
                "length": 1,
                "description": {
                  "TYPE_NAME": "define2_1_0.ODMcomplexTypeDefinitionDescription",
                  "translatedText": [
                    {
                      "TYPE_NAME": "define2_1_0.ODMcomplexTypeDefinitionTranslatedText",
                      "lang": "en",
                      "value": "Analysis Record Flag 1"
                    }
                  ]
                },
                "codeListRef": {
                  "TYPE_NAME": "define2_1_0.ODMcomplexTypeDefinitionCodeListRef",
                  "codeListOID": "Y_BLANK"
                }
              },
              {
                "TYPE_NAME": "define2_1_0.ODMcomplexTypeDefinitionItemDef",
                "oid": "ADLBC.ALBTRVAL",
                "name": "ALBTRVAL",
                "dataType": "float",
                "length": 8,
                "significantDigits": 3,
                "description": {
                  "TYPE_NAME": "define2_1_0.ODMcomplexTypeDefinitionDescription",
                  "translatedText": [
                    {
                      "TYPE_NAME": "define2_1_0.ODMcomplexTypeDefinitionTranslatedText",
                      "lang": "en",
                      "value": "Amount Threshold Range"
                    }
                  ]
                }
              },
              {
                "TYPE_NAME": "define2_1_0.ODMcomplexTypeDefinitionItemDef",
                "oid": "ADLBC.ANRIND",
                "name": "ANRIND",
                "dataType": "text",
                "length": 1,
                "description": {
                  "TYPE_NAME": "define2_1_0.ODMcomplexTypeDefinitionDescription",
                  "translatedText": [
                    {
                      "TYPE_NAME": "define2_1_0.ODMcomplexTypeDefinitionTranslatedText",
                      "lang": "en",
                      "value": "Analysis Reference Range Indicator"
                    }
                  ]
                },
                "codeListRef": {
                  "TYPE_NAME": "define2_1_0.ODMcomplexTypeDefinitionCodeListRef",
                  "codeListOID": "LNH"
                }
              },
              {
                "TYPE_NAME": "define2_1_0.ODMcomplexTypeDefinitionItemDef",
                "oid": "ADLBC.BNRIND",
                "name": "BNRIND",
                "dataType": "text",
                "length": 1,
                "description": {
                  "TYPE_NAME": "define2_1_0.ODMcomplexTypeDefinitionDescription",
                  "translatedText": [
                    {
                      "TYPE_NAME": "define2_1_0.ODMcomplexTypeDefinitionTranslatedText",
                      "lang": "en",
                      "value": "Baseline Reference Range Indicator"
                    }
                  ]
                },
                "codeListRef": {
                  "TYPE_NAME": "define2_1_0.ODMcomplexTypeDefinitionCodeListRef",
                  "codeListOID": "LNH"
                }
              },
              {
                "TYPE_NAME": "define2_1_0.ODMcomplexTypeDefinitionItemDef",
                "oid": "ADLBC.ABLFL",
                "name": "ABLFL",
                "dataType": "text",
                "length": 1,
                "description": {
                  "TYPE_NAME": "define2_1_0.ODMcomplexTypeDefinitionDescription",
                  "translatedText": [
                    {
                      "TYPE_NAME": "define2_1_0.ODMcomplexTypeDefinitionTranslatedText",
                      "lang": "en",
                      "value": "Baseline Record Flag"
                    }
                  ]
                },
                "codeListRef": {
                  "TYPE_NAME": "define2_1_0.ODMcomplexTypeDefinitionCodeListRef",
                  "codeListOID": "Y_BLANK"
                }
              },
              {
                "TYPE_NAME": "define2_1_0.ODMcomplexTypeDefinitionItemDef",
                "oid": "ADLBC.AENTMTFL",
                "name": "AENTMTFL",
                "dataType": "text",
                "length": 1,
                "description": {
                  "TYPE_NAME": "define2_1_0.ODMcomplexTypeDefinitionDescription",
                  "translatedText": [
                    {
                      "TYPE_NAME": "define2_1_0.ODMcomplexTypeDefinitionTranslatedText",
                      "lang": "en",
                      "value": "Last value in treatment visit"
                    }
                  ]
                },
                "codeListRef": {
                  "TYPE_NAME": "define2_1_0.ODMcomplexTypeDefinitionCodeListRef",
                  "codeListOID": "Y_BLANK"
                }
              },
              {
                "TYPE_NAME": "define2_1_0.ODMcomplexTypeDefinitionItemDef",
                "oid": "ADLBC.LBSEQ",
                "name": "LBSEQ",
                "dataType": "integer",
                "length": 8,
                "description": {
                  "TYPE_NAME": "define2_1_0.ODMcomplexTypeDefinitionDescription",
                  "translatedText": [
                    {
                      "TYPE_NAME": "define2_1_0.ODMcomplexTypeDefinitionTranslatedText",
                      "lang": "en",
                      "value": "Sequence Number"
                    }
                  ]
                }
              },
              {
                "TYPE_NAME": "define2_1_0.ODMcomplexTypeDefinitionItemDef",
                "oid": "ADLBC.LBNRIND",
                "name": "LBNRIND",
                "dataType": "text",
                "length": 8,
                "description": {
                  "TYPE_NAME": "define2_1_0.ODMcomplexTypeDefinitionDescription",
                  "translatedText": [
                    {
                      "TYPE_NAME": "define2_1_0.ODMcomplexTypeDefinitionTranslatedText",
                      "lang": "en",
                      "value": "Reference Range Indicator"
                    }
                  ]
                },
                "codeListRef": {
                  "TYPE_NAME": "define2_1_0.ODMcomplexTypeDefinitionCodeListRef",
                  "codeListOID": "LBNRIND"
                }
              },
              {
                "TYPE_NAME": "define2_1_0.ODMcomplexTypeDefinitionItemDef",
                "oid": "ADLBC.LBSTRESN",
                "name": "LBSTRESN",
                "dataType": "float",
                "length": 8,
                "significantDigits": 5,
                "description": {
                  "TYPE_NAME": "define2_1_0.ODMcomplexTypeDefinitionDescription",
                  "translatedText": [
                    {
                      "TYPE_NAME": "define2_1_0.ODMcomplexTypeDefinitionTranslatedText",
                      "lang": "en",
                      "value": "Numeric Result/Finding in Standard Units"
                    }
                  ]
                }
              },
              {
                "TYPE_NAME": "define2_1_0.ODMcomplexTypeDefinitionItemDef",
                "oid": "ADLBH.STUDYID",
                "name": "STUDYID",
                "dataType": "text",
                "length": 12,
                "description": {
                  "TYPE_NAME": "define2_1_0.ODMcomplexTypeDefinitionDescription",
                  "translatedText": [
                    {
                      "TYPE_NAME": "define2_1_0.ODMcomplexTypeDefinitionTranslatedText",
                      "lang": "en",
                      "value": "Study Identifier"
                    }
                  ]
                }
              },
              {
                "TYPE_NAME": "define2_1_0.ODMcomplexTypeDefinitionItemDef",
                "oid": "ADLBH.SUBJID",
                "name": "SUBJID",
                "dataType": "text",
                "length": 4,
                "description": {
                  "TYPE_NAME": "define2_1_0.ODMcomplexTypeDefinitionDescription",
                  "translatedText": [
                    {
                      "TYPE_NAME": "define2_1_0.ODMcomplexTypeDefinitionTranslatedText",
                      "lang": "en",
                      "value": "Subject Identifier for the Study"
                    }
                  ]
                }
              },
              {
                "TYPE_NAME": "define2_1_0.ODMcomplexTypeDefinitionItemDef",
                "oid": "ADLBH.USUBJID",
                "name": "USUBJID",
                "dataType": "text",
                "length": 11,
                "description": {
                  "TYPE_NAME": "define2_1_0.ODMcomplexTypeDefinitionDescription",
                  "translatedText": [
                    {
                      "TYPE_NAME": "define2_1_0.ODMcomplexTypeDefinitionTranslatedText",
                      "lang": "en",
                      "value": "Unique Subject Identifier"
                    }
                  ]
                }
              },
              {
                "TYPE_NAME": "define2_1_0.ODMcomplexTypeDefinitionItemDef",
                "oid": "ADLBH.TRTP",
                "name": "TRTP",
                "dataType": "text",
                "length": 20,
                "description": {
                  "TYPE_NAME": "define2_1_0.ODMcomplexTypeDefinitionDescription",
                  "translatedText": [
                    {
                      "TYPE_NAME": "define2_1_0.ODMcomplexTypeDefinitionTranslatedText",
                      "lang": "en",
                      "value": "Planned Treatment"
                    }
                  ]
                },
                "codeListRef": {
                  "TYPE_NAME": "define2_1_0.ODMcomplexTypeDefinitionCodeListRef",
                  "codeListOID": "ARM"
                }
              },
              {
                "TYPE_NAME": "define2_1_0.ODMcomplexTypeDefinitionItemDef",
                "oid": "ADLBH.TRTPN",
                "name": "TRTPN",
                "dataType": "integer",
                "length": 8,
                "description": {
                  "TYPE_NAME": "define2_1_0.ODMcomplexTypeDefinitionDescription",
                  "translatedText": [
                    {
                      "TYPE_NAME": "define2_1_0.ODMcomplexTypeDefinitionTranslatedText",
                      "lang": "en",
                      "value": "Planned Treatment (N)"
                    }
                  ]
                },
                "codeListRef": {
                  "TYPE_NAME": "define2_1_0.ODMcomplexTypeDefinitionCodeListRef",
                  "codeListOID": "ARMN"
                }
              },
              {
                "TYPE_NAME": "define2_1_0.ODMcomplexTypeDefinitionItemDef",
                "oid": "ADLBH.TRTA",
                "name": "TRTA",
                "dataType": "text",
                "length": 20,
                "description": {
                  "TYPE_NAME": "define2_1_0.ODMcomplexTypeDefinitionDescription",
                  "translatedText": [
                    {
                      "TYPE_NAME": "define2_1_0.ODMcomplexTypeDefinitionTranslatedText",
                      "lang": "en",
                      "value": "Actual Treatment"
                    }
                  ]
                },
                "codeListRef": {
                  "TYPE_NAME": "define2_1_0.ODMcomplexTypeDefinitionCodeListRef",
                  "codeListOID": "ARM"
                }
              },
              {
                "TYPE_NAME": "define2_1_0.ODMcomplexTypeDefinitionItemDef",
                "oid": "ADLBH.TRTAN",
                "name": "TRTAN",
                "dataType": "integer",
                "length": 8,
                "description": {
                  "TYPE_NAME": "define2_1_0.ODMcomplexTypeDefinitionDescription",
                  "translatedText": [
                    {
                      "TYPE_NAME": "define2_1_0.ODMcomplexTypeDefinitionTranslatedText",
                      "lang": "en",
                      "value": "Actual Treatment (N)"
                    }
                  ]
                },
                "codeListRef": {
                  "TYPE_NAME": "define2_1_0.ODMcomplexTypeDefinitionCodeListRef",
                  "codeListOID": "ARMN"
                }
              },
              {
                "TYPE_NAME": "define2_1_0.ODMcomplexTypeDefinitionItemDef",
                "oid": "ADLBH.TRTSDT",
                "name": "TRTSDT",
                "dataType": "integer",
                "length": 8,
                "description": {
                  "TYPE_NAME": "define2_1_0.ODMcomplexTypeDefinitionDescription",
                  "translatedText": [
                    {
                      "TYPE_NAME": "define2_1_0.ODMcomplexTypeDefinitionTranslatedText",
                      "lang": "en",
                      "value": "Date of First Exposure to Treatment"
                    }
                  ]
                }
              },
              {
                "TYPE_NAME": "define2_1_0.ODMcomplexTypeDefinitionItemDef",
                "oid": "ADLBH.TRTEDT",
                "name": "TRTEDT",
                "dataType": "integer",
                "length": 8,
                "description": {
                  "TYPE_NAME": "define2_1_0.ODMcomplexTypeDefinitionDescription",
                  "translatedText": [
                    {
                      "TYPE_NAME": "define2_1_0.ODMcomplexTypeDefinitionTranslatedText",
                      "lang": "en",
                      "value": "Date of Last Exposure to Treatment"
                    }
                  ]
                }
              },
              {
                "TYPE_NAME": "define2_1_0.ODMcomplexTypeDefinitionItemDef",
                "oid": "ADLBH.AGE",
                "name": "AGE",
                "dataType": "integer",
                "length": 8,
                "description": {
                  "TYPE_NAME": "define2_1_0.ODMcomplexTypeDefinitionDescription",
                  "translatedText": [
                    {
                      "TYPE_NAME": "define2_1_0.ODMcomplexTypeDefinitionTranslatedText",
                      "lang": "en",
                      "value": "Age"
                    }
                  ]
                }
              },
              {
                "TYPE_NAME": "define2_1_0.ODMcomplexTypeDefinitionItemDef",
                "oid": "ADLBH.AGEGR1",
                "name": "AGEGR1",
                "dataType": "text",
                "length": 5,
                "description": {
                  "TYPE_NAME": "define2_1_0.ODMcomplexTypeDefinitionDescription",
                  "translatedText": [
                    {
                      "TYPE_NAME": "define2_1_0.ODMcomplexTypeDefinitionTranslatedText",
                      "lang": "en",
                      "value": "Pooled Age Group 1"
                    }
                  ]
                },
                "codeListRef": {
                  "TYPE_NAME": "define2_1_0.ODMcomplexTypeDefinitionCodeListRef",
                  "codeListOID": "AGEGR1"
                }
              },
              {
                "TYPE_NAME": "define2_1_0.ODMcomplexTypeDefinitionItemDef",
                "oid": "ADLBH.AGEGR1N",
                "name": "AGEGR1N",
                "dataType": "integer",
                "length": 8,
                "description": {
                  "TYPE_NAME": "define2_1_0.ODMcomplexTypeDefinitionDescription",
                  "translatedText": [
                    {
                      "TYPE_NAME": "define2_1_0.ODMcomplexTypeDefinitionTranslatedText",
                      "lang": "en",
                      "value": "Pooled Age Group 1 (N)"
                    }
                  ]
                },
                "codeListRef": {
                  "TYPE_NAME": "define2_1_0.ODMcomplexTypeDefinitionCodeListRef",
                  "codeListOID": "AGEGR1N"
                }
              },
              {
                "TYPE_NAME": "define2_1_0.ODMcomplexTypeDefinitionItemDef",
                "oid": "ADLBH.RACE",
                "name": "RACE",
                "dataType": "text",
                "length": 32,
                "description": {
                  "TYPE_NAME": "define2_1_0.ODMcomplexTypeDefinitionDescription",
                  "translatedText": [
                    {
                      "TYPE_NAME": "define2_1_0.ODMcomplexTypeDefinitionTranslatedText",
                      "lang": "en",
                      "value": "Race"
                    }
                  ]
                },
                "codeListRef": {
                  "TYPE_NAME": "define2_1_0.ODMcomplexTypeDefinitionCodeListRef",
                  "codeListOID": "RACE"
                }
              },
              {
                "TYPE_NAME": "define2_1_0.ODMcomplexTypeDefinitionItemDef",
                "oid": "ADLBH.RACEN",
                "name": "RACEN",
                "dataType": "integer",
                "length": 8,
                "description": {
                  "TYPE_NAME": "define2_1_0.ODMcomplexTypeDefinitionDescription",
                  "translatedText": [
                    {
                      "TYPE_NAME": "define2_1_0.ODMcomplexTypeDefinitionTranslatedText",
                      "lang": "en",
                      "value": "Race (N)"
                    }
                  ]
                },
                "codeListRef": {
                  "TYPE_NAME": "define2_1_0.ODMcomplexTypeDefinitionCodeListRef",
                  "codeListOID": "RACEN"
