<?xml version='1.0' encoding='utf-8'?>
<data>
  <row>
    <index>0</index>
    <STUDYID>CDISCPILOT01</STUDYID>
    <DOMAIN>VS</DOMAIN>
    <USUBJID>CDISC001</USUBJID>
    <VSSEQ>1</VSSEQ>
    <VSTESTCD>DIABP</VSTESTCD>
    <VSTEST>Diastolic Blood Pressure</VSTEST>
    <VSPOS>STANDING</VSPOS>
    <VSORRES>71</VSORRES>
    <VSORRESU>mmHg</VSORRESU>
    <VSSTRESC>71</VSSTRESC>
    <VSSTRESN>71.0</VSSTRESN>
    <VSSTRESU>mmHg</VSSTRESU>
    <VSSTAT/>
    <VSLOC/>
    <VSLOBXFL/>
    <VSREPNUM/>
    <VISITNUM>1</VISITNUM>
    <VISIT>SCREENING 1</VISIT>
    <EPOCH>SCREENING</EPOCH>
    <VSDTC>2012-11-23</VSDTC>
    <VSDY>-7</VSDY>
  </row>
  <row>
    <index>1</index>
    <STUDYID>CDISCPILOT01</STUDYID>
    <DOMAIN>VS</DOMAIN>
    <USUBJID>CDISC001</USUBJID>
    <VSSEQ>2</VSSEQ>
    <VSTESTCD>DIABP</VSTESTCD>
    <VSTEST>Diastolic Blood Pressure</VSTEST>
    <VSPOS>STANDING</VSPOS>
    <VSORRES>71</VSORRES>
    <VSORRESU>mmHg</VSORRESU>
    <VSSTRESC>71</VSSTRESC>
    <VSSTRESN>71.0</VSSTRESN>
    <VSSTRESU>mmHg</VSSTRESU>
    <VSSTAT/>
    <VSLOC/>
    <VSLOBXFL/>
    <VSREPNUM/>
    <VISITNUM>2</VISITNUM>
    <VISIT>SCREENING 2</VISIT>
    <EPOCH>SCREENING</EPOCH>
    <VSDTC>2012-11-28</VSDTC>
    <VSDY>-2</VSDY>
  </row>
  <row>
    <index>2</index>
    <STUDYID>CDISCPILOT01</STUDYID>
    <DOMAIN>VS</DOMAIN>
    <USUBJID>CDISC001</USUBJID>
    <VSSEQ>3</VSSEQ>
    <VSTESTCD>DIABP</VSTESTCD>
    <VSTEST>Diastolic Blood Pressure</VSTEST>
    <VSPOS>STANDING</VSPOS>
    <VSORRES>83</VSORRES>
    <VSORRESU>mmHg</VSORRESU>
    <VSSTRESC>83</VSSTRESC>
    <VSSTRESN>83.0</VSSTRESN>
    <VSSTRESU>mmHg</VSSTRESU>
    <VSSTAT/>
    <VSLOC/>
    <VSLOBXFL>Y</VSLOBXFL>
    <VSREPNUM/>
    <VISITNUM>3</VISITNUM>
    <VISIT>BASELINE</VISIT>
    <EPOCH>SCREENING</EPOCH>
    <VSDTC>2012-11-30</VSDTC>
    <VSDY>1</VSDY>
  </row>
  <row>
    <index>3</index>
    <STUDYID>CDISCPILOT01</STUDYID>
    <DOMAIN>VS</DOMAIN>
    <USUBJID>CDISC001</USUBJID>
    <VSSEQ>4</VSSEQ>
    <VSTESTCD>DIABP</VSTESTCD>
    <VSTEST>Diastolic Blood Pressure</VSTEST>
    <VSPOS>STANDING</VSPOS>
    <VSORRES>79</VSORRES>
    <VSORRESU>mmHg</VSORRESU>
    <VSSTRESC>79</VSSTRESC>
    <VSSTRESN>79.0</VSSTRESN>
    <VSSTRESU>mmHg</VSSTRESU>
    <VSSTAT/>
    <VSLOC/>
    <VSLOBXFL/>
    <VSREPNUM/>
    <VISITNUM>4</VISITNUM>
    <VISIT>WEEK 2</VISIT>
    <EPOCH>TREATMENT</EPOCH>
    <VSDTC>2012-12-13</VSDTC>
    <VSDY>14</VSDY>
  </row>
  <row>
    <index>4</index>
    <STUDYID>CDISCPILOT01</STUDYID>
    <DOMAIN>VS</DOMAIN>
    <USUBJID>CDISC001</USUBJID>
    <VSSEQ>5</VSSEQ>
    <VSTESTCD>DIABP</VSTESTCD>
    <VSTEST>Diastolic Blood Pressure</VSTEST>
    <VSPOS>STANDING</VSPOS>
    <VSORRES>68</VSORRES>
    <VSORRESU>mmHg</VSORRESU>
    <VSSTRESC>68</VSSTRESC>
    <VSSTRESN>68.0</VSSTRESN>
    <VSSTRESU>mmHg</VSSTRESU>
    <VSSTAT/>
    <VSLOC/>
    <VSLOBXFL/>
    <VSREPNUM/>
    <VISITNUM>5</VISITNUM>
    <VISIT>WEEK 4</VISIT>
    <EPOCH>TREATMENT</EPOCH>
    <VSDTC>2012-12-26</VSDTC>
    <VSDY>27</VSDY>
  </row>
  <row>
    <index>5</index>
    <STUDYID>CDISCPILOT01</STUDYID>
    <DOMAIN>VS</DOMAIN>
    <USUBJID>CDISC001</USUBJID>
    <VSSEQ>6</VSSEQ>
    <VSTESTCD>DIABP</VSTESTCD>
    <VSTEST>Diastolic Blood Pressure</VSTEST>
    <VSPOS>SUPINE</VSPOS>
    <VSORRES>77</VSORRES>
    <VSORRESU>mmHg</VSORRESU>
    <VSSTRESC>77</VSSTRESC>
    <VSSTRESN>77.0</VSSTRESN>
    <VSSTRESU>mmHg</VSSTRESU>
    <VSSTAT/>
    <VSLOC/>
    <VSLOBXFL/>
    <VSREPNUM>1.0</VSREPNUM>
    <VISITNUM>7</VISITNUM>
    <VISIT>WEEK 6</VISIT>
    <EPOCH>TREATMENT</EPOCH>
    <VSDTC>2013-01-10</VSDTC>
    <VSDY>42</VSDY>
  </row>
  <row>
    <index>6</index>
    <STUDYID>CDISCPILOT01</STUDYID>
    <DOMAIN>VS</DOMAIN>
    <USUBJID>CDISC001</USUBJID>
    <VSSEQ>7</VSSEQ>
    <VSTESTCD>DIABP</VSTESTCD>
    <VSTEST>Diastolic Blood Pressure</VSTEST>
    <VSPOS>STANDING</VSPOS>
    <VSORRES>71</VSORRES>
    <VSORRESU>mmHg</VSORRESU>
    <VSSTRESC>71</VSSTRESC>
    <VSSTRESN>71.0</VSSTRESN>
    <VSSTRESU>mmHg</VSSTRESU>
    <VSSTAT/>
    <VSLOC/>
    <VSLOBXFL/>
    <VSREPNUM>2.0</VSREPNUM>
    <VISITNUM>7</VISITNUM>
    <VISIT>WEEK 6</VISIT>
    <EPOCH>TREATMENT</EPOCH>
    <VSDTC>2013-01-10</VSDTC>
    <VSDY>42</VSDY>
  </row>
  <row>
    <index>7</index>
    <STUDYID>CDISCPILOT01</STUDYID>
    <DOMAIN>VS</DOMAIN>
    <USUBJID>CDISC001</USUBJID>
    <VSSEQ>8</VSSEQ>
    <VSTESTCD>DIABP</VSTESTCD>
    <VSTEST>Diastolic Blood Pressure</VSTEST>
    <VSPOS>STANDING</VSPOS>
    <VSORRES>69</VSORRES>
    <VSORRESU>mmHg</VSORRESU>
    <VSSTRESC>69</VSSTRESC>
    <VSSTRESN>69.0</VSSTRESN>
    <VSSTRESU>mmHg</VSSTRESU>
    <VSSTAT/>
    <VSLOC/>
    <VSLOBXFL/>
    <VSREPNUM>3.0</VSREPNUM>
    <VISITNUM>7</VISITNUM>
    <VISIT>WEEK 6</VISIT>
    <EPOCH>TREATMENT</EPOCH>
    <VSDTC>2013-01-10</VSDTC>
    <VSDY>42</VSDY>
  </row>
  <row>
    <index>8</index>
    <STUDYID>CDISCPILOT01</STUDYID>
    <DOMAIN>VS</DOMAIN>
    <USUBJID>CDISC001</USUBJID>
    <VSSEQ>9</VSSEQ>
    <VSTESTCD>DIABP</VSTESTCD>
    <VSTEST>Diastolic Blood Pressure</VSTEST>
    <VSPOS>SUPINE</VSPOS>
    <VSORRES>76</VSORRES>
    <VSORRESU>mmHg</VSORRESU>
    <VSSTRESC>76</VSSTRESC>
    <VSSTRESN>76.0</VSSTRESN>
    <VSSTRESU>mmHg</VSSTRESU>
    <VSSTAT/>
    <VSLOC/>
    <VSLOBXFL/>
    <VSREPNUM>1.0</VSREPNUM>
    <VISITNUM>8</VISITNUM>
    <VISIT>WEEK 8</VISIT>
    <EPOCH>TREATMENT</EPOCH>
    <VSDTC>2013-01-23</VSDTC>
    <VSDY>55</VSDY>
  </row>
  <row>
    <index>9</index>
    <STUDYID>CDISCPILOT01</STUDYID>
    <DOMAIN>VS</DOMAIN>
    <USUBJID>CDISC001</USUBJID>
    <VSSEQ>10</VSSEQ>
    <VSTESTCD>DIABP</VSTESTCD>
    <VSTEST>Diastolic Blood Pressure</VSTEST>
    <VSPOS>STANDING</VSPOS>
    <VSORRES>52</VSORRES>
    <VSORRESU>mmHg</VSORRESU>
    <VSSTRESC>52</VSSTRESC>
    <VSSTRESN>52.0</VSSTRESN>
    <VSSTRESU>mmHg</VSSTRESU>
    <VSSTAT/>
    <VSLOC/>
    <VSLOBXFL/>
    <VSREPNUM>2.0</VSREPNUM>
    <VISITNUM>8</VISITNUM>
    <VISIT>WEEK 8</VISIT>
    <EPOCH>TREATMENT</EPOCH>
    <VSDTC>2013-01-23</VSDTC>
    <VSDY>55</VSDY>
  </row>
  <row>
    <index>10</index>
    <STUDYID>CDISCPILOT01</STUDYID>
    <DOMAIN>VS</DOMAIN>
    <USUBJID>CDISC001</USUBJID>
    <VSSEQ>11</VSSEQ>
    <VSTESTCD>DIABP</VSTESTCD>
    <VSTEST>Diastolic Blood Pressure</VSTEST>
    <VSPOS>STANDING</VSPOS>
    <VSORRES>60</VSORRES>
    <VSORRESU>mmHg</VSORRESU>
    <VSSTRESC>60</VSSTRESC>
    <VSSTRESN>60.0</VSSTRESN>
    <VSSTRESU>mmHg</VSSTRESU>
    <VSSTAT/>
    <VSLOC/>
    <VSLOBXFL/>
    <VSREPNUM>3.0</VSREPNUM>
    <VISITNUM>8</VISITNUM>
    <VISIT>WEEK 8</VISIT>
    <EPOCH>TREATMENT</EPOCH>
    <VSDTC>2013-01-23</VSDTC>
    <VSDY>55</VSDY>
  </row>
  <row>
    <index>11</index>
    <STUDYID>CDISCPILOT01</STUDYID>
    <DOMAIN>VS</DOMAIN>
    <USUBJID>CDISC001</USUBJID>
    <VSSEQ>12</VSSEQ>
    <VSTESTCD>DIABP</VSTESTCD>
    <VSTEST>Diastolic Blood Pressure</VSTEST>
    <VSPOS>SUPINE</VSPOS>
    <VSORRES>68</VSORRES>
    <VSORRESU>mmHg</VSORRESU>
    <VSSTRESC>68</VSSTRESC>
    <VSSTRESN>68.0</VSSTRESN>
    <VSSTRESU>mmHg</VSSTRESU>
    <VSSTAT/>
    <VSLOC/>
    <VSLOBXFL/>
    <VSREPNUM>1.0</VSREPNUM>
    <VISITNUM>201</VISITNUM>
    <VISIT>EARLY DISCONTINUATION RETRIEVAL</VISIT>
    <EPOCH>TREATMENT</EPOCH>
    <VSDTC>2013-05-20</VSDTC>
    <VSDY>172</VSDY>
  </row>
  <row>
    <index>12</index>
    <STUDYID>CDISCPILOT01</STUDYID>
    <DOMAIN>VS</DOMAIN>
    <USUBJID>CDISC001</USUBJID>
    <VSSEQ>13</VSSEQ>
    <VSTESTCD>DIABP</VSTESTCD>
    <VSTEST>Diastolic Blood Pressure</VSTEST>
    <VSPOS>STANDING</VSPOS>
    <VSORRES>72</VSORRES>
    <VSORRESU>mmHg</VSORRESU>
    <VSSTRESC>72</VSSTRESC>
    <VSSTRESN>72.0</VSSTRESN>
    <VSSTRESU>mmHg</VSSTRESU>
    <VSSTAT/>
    <VSLOC/>
    <VSLOBXFL/>
    <VSREPNUM>2.0</VSREPNUM>
    <VISITNUM>201</VISITNUM>
    <VISIT>EARLY DISCONTINUATION RETRIEVAL</VISIT>
    <EPOCH>TREATMENT</EPOCH>
    <VSDTC>2013-05-20</VSDTC>
    <VSDY>172</VSDY>
  </row>
  <row>
    <index>13</index>
    <STUDYID>CDISCPILOT01</STUDYID>
    <DOMAIN>VS</DOMAIN>
    <USUBJID>CDISC001</USUBJID>
    <VSSEQ>14</VSSEQ>
    <VSTESTCD>DIABP</VSTESTCD>
    <VSTEST>Diastolic Blood Pressure</VSTEST>
    <VSPOS>STANDING</VSPOS>
    <VSORRES>68</VSORRES>
    <VSORRESU>mmHg</VSORRESU>
    <VSSTRESC>68</VSSTRESC>
    <VSSTRESN>68.0</VSSTRESN>
    <VSSTRESU>mmHg</VSSTRESU>
    <VSSTAT/>
    <VSLOC/>
    <VSLOBXFL/>
    <VSREPNUM>3.0</VSREPNUM>
    <VISITNUM>201</VISITNUM>
    <VISIT>EARLY DISCONTINUATION RETRIEVAL</VISIT>
    <EPOCH>TREATMENT</EPOCH>
    <VSDTC>2013-05-20</VSDTC>
    <VSDY>172</VSDY>
  </row>
  <row>
    <index>14</index>
    <STUDYID>CDISCPILOT01</STUDYID>
    <DOMAIN>VS</DOMAIN>
    <USUBJID>CDISC001</USUBJID>
    <VSSEQ>15</VSSEQ>
    <VSTESTCD>HEIGHT</VSTESTCD>
    <VSTEST>Height</VSTEST>
    <VSPOS/>
    <VSORRES>71.5</VSORRES>
    <VSORRESU>in</VSORRESU>
    <VSSTRESC>181.61</VSSTRESC>
    <VSSTRESN>181.61</VSSTRESN>
    <VSSTRESU>cm</VSSTRESU>
    <VSSTAT/>
    <VSLOC/>
    <VSLOBXFL/>
    <VSREPNUM/>
    <VISITNUM>1</VISITNUM>
    <VISIT>SCREENING 1</VISIT>
    <EPOCH>SCREENING</EPOCH>
    <VSDTC>2012-11-23</VSDTC>
    <VSDY>-7</VSDY>
  </row>
  <row>
    <index>15</index>
    <STUDYID>CDISCPILOT01</STUDYID>
    <DOMAIN>VS</DOMAIN>
    <USUBJID>CDISC001</USUBJID>
    <VSSEQ>16</VSSEQ>
    <VSTESTCD>PULSE</VSTESTCD>
    <VSTEST>Pulse Rate</VSTEST>
    <VSPOS>STANDING</VSPOS>
    <VSORRES>51</VSORRES>
    <VSORRESU>beats/min</VSORRESU>
    <VSSTRESC>51</VSSTRESC>
    <VSSTRESN>51.0</VSSTRESN>
    <VSSTRESU>beats/min</VSSTRESU>
    <VSSTAT/>
    <VSLOC/>
    <VSLOBXFL/>
    <VSREPNUM/>
    <VISITNUM>1</VISITNUM>
    <VISIT>SCREENING 1</VISIT>
    <EPOCH>SCREENING</EPOCH>
    <VSDTC>2012-11-23</VSDTC>
    <VSDY>-7</VSDY>
  </row>
  <row>
    <index>16</index>
    <STUDYID>CDISCPILOT01</STUDYID>
    <DOMAIN>VS</DOMAIN>
    <USUBJID>CDISC001</USUBJID>
    <VSSEQ>17</VSSEQ>
    <VSTESTCD>PULSE</VSTESTCD>
    <VSTEST>Pulse Rate</VSTEST>
    <VSPOS>STANDING</VSPOS>
    <VSORRES>50</VSORRES>
    <VSORRESU>beats/min</VSORRESU>
    <VSSTRESC>50</VSSTRESC>
    <VSSTRESN>50.0</VSSTRESN>
    <VSSTRESU>beats/min</VSSTRESU>
    <VSSTAT/>
    <VSLOC/>
    <VSLOBXFL/>
    <VSREPNUM/>
    <VISITNUM>2</VISITNUM>
    <VISIT>SCREENING 2</VISIT>
    <EPOCH>SCREENING</EPOCH>
    <VSDTC>2012-11-28</VSDTC>
    <VSDY>-2</VSDY>
  </row>
  <row>
    <index>17</index>
    <STUDYID>CDISCPILOT01</STUDYID>
    <DOMAIN>VS</DOMAIN>
    <USUBJID>CDISC001</USUBJID>
    <VSSEQ>18</VSSEQ>
    <VSTESTCD>PULSE</VSTESTCD>
    <VSTEST>Pulse Rate</VSTEST>
    <VSPOS>STANDING</VSPOS>
    <VSORRES>50</VSORRES>
    <VSORRESU>beats/min</VSORRESU>
    <VSSTRESC>50</VSSTRESC>
    <VSSTRESN>50.0</VSSTRESN>
    <VSSTRESU>beats/min</VSSTRESU>
    <VSSTAT/>
    <VSLOC/>
    <VSLOBXFL>Y</VSLOBXFL>
    <VSREPNUM/>
    <VISITNUM>3</VISITNUM>
    <VISIT>BASELINE</VISIT>
    <EPOCH>SCREENING</EPOCH>
    <VSDTC>2012-11-30</VSDTC>
    <VSDY>1</VSDY>
  </row>
  <row>
    <index>18</index>
    <STUDYID>CDISCPILOT01</STUDYID>
    <DOMAIN>VS</DOMAIN>
    <USUBJID>CDISC001</USUBJID>
    <VSSEQ>19</VSSEQ>
    <VSTESTCD>PULSE</VSTESTCD>
    <VSTEST>Pulse Rate</VSTEST>
    <VSPOS>STANDING</VSPOS>
    <VSORRES>53</VSORRES>
    <VSORRESU>beats/min</VSORRESU>
    <VSSTRESC>53</VSSTRESC>
    <VSSTRESN>53.0</VSSTRESN>
    <VSSTRESU>beats/min</VSSTRESU>
    <VSSTAT/>
    <VSLOC/>
    <VSLOBXFL/>
    <VSREPNUM/>
    <VISITNUM>4</VISITNUM>
    <VISIT>WEEK 2</VISIT>
    <EPOCH>TREATMENT</EPOCH>
    <VSDTC>2012-12-13</VSDTC>
    <VSDY>14</VSDY>
  </row>
  <row>
    <index>19</index>
    <STUDYID>CDISCPILOT01</STUDYID>
    <DOMAIN>VS</DOMAIN>
    <USUBJID>CDISC001</USUBJID>
    <VSSEQ>20</VSSEQ>
    <VSTESTCD>PULSE</VSTESTCD>
    <VSTEST>Pulse Rate</VSTEST>
    <VSPOS>STANDING</VSPOS>
    <VSORRES>51</VSORRES>
    <VSORRESU>beats/min</VSORRESU>
    <VSSTRESC>51</VSSTRESC>
    <VSSTRESN>51.0</VSSTRESN>
    <VSSTRESU>beats/min</VSSTRESU>
    <VSSTAT/>
    <VSLOC/>
    <VSLOBXFL/>
    <VSREPNUM/>
    <VISITNUM>5</VISITNUM>
    <VISIT>WEEK 4</VISIT>
    <EPOCH>TREATMENT</EPOCH>
    <VSDTC>2012-12-26</VSDTC>
    <VSDY>27</VSDY>
  </row>
  <row>
    <index>20</index>
    <STUDYID>CDISCPILOT01</STUDYID>
    <DOMAIN>VS</DOMAIN>
    <USUBJID>CDISC001</USUBJID>
    <VSSEQ>21</VSSEQ>
    <VSTESTCD>PULSE</VSTESTCD>
    <VSTEST>Pulse Rate</VSTEST>
    <VSPOS>SUPINE</VSPOS>
    <VSORRES>52</VSORRES>
    <VSORRESU>beats/min</VSORRESU>
    <VSSTRESC>52</VSSTRESC>
    <VSSTRESN>52.0</VSSTRESN>
    <VSSTRESU>beats/min</VSSTRESU>
    <VSSTAT/>
    <VSLOC/>
    <VSLOBXFL/>
    <VSREPNUM>1.0</VSREPNUM>
    <VISITNUM>7</VISITNUM>
    <VISIT>WEEK 6</VISIT>
    <EPOCH>TREATMENT</EPOCH>
    <VSDTC>2013-01-10</VSDTC>
    <VSDY>42</VSDY>
  </row>
  <row>
    <index>21</index>
    <STUDYID>CDISCPILOT01</STUDYID>
    <DOMAIN>VS</DOMAIN>
    <USUBJID>CDISC001</USUBJID>
    <VSSEQ>22</VSSEQ>
    <VSTESTCD>PULSE</VSTESTCD>
    <VSTEST>Pulse Rate</VSTEST>
    <VSPOS>STANDING</VSPOS>
    <VSORRES>62</VSORRES>
    <VSORRESU>beats/min</VSORRESU>
    <VSSTRESC>62</VSSTRESC>
    <VSSTRESN>62.0</VSSTRESN>
    <VSSTRESU>beats/min</VSSTRESU>
    <VSSTAT/>
    <VSLOC/>
    <VSLOBXFL/>
    <VSREPNUM>2.0</VSREPNUM>
    <VISITNUM>7</VISITNUM>
    <VISIT>WEEK 6</VISIT>
    <EPOCH>TREATMENT</EPOCH>
    <VSDTC>2013-01-10</VSDTC>
    <VSDY>42</VSDY>
  </row>
  <row>
    <index>22</index>
    <STUDYID>CDISCPILOT01</STUDYID>
    <DOMAIN>VS</DOMAIN>
    <USUBJID>CDISC001</USUBJID>
    <VSSEQ>23</VSSEQ>
    <VSTESTCD>PULSE</VSTESTCD>
    <VSTEST>Pulse Rate</VSTEST>
    <VSPOS>STANDING</VSPOS>
    <VSORRES>62</VSORRES>
    <VSORRESU>beats/min</VSORRESU>
    <VSSTRESC>62</VSSTRESC>
    <VSSTRESN>62.0</VSSTRESN>
    <VSSTRESU>beats/min</VSSTRESU>
    <VSSTAT/>
    <VSLOC/>
    <VSLOBXFL/>
    <VSREPNUM>3.0</VSREPNUM>
    <VISITNUM>7</VISITNUM>
    <VISIT>WEEK 6</VISIT>
    <EPOCH>TREATMENT</EPOCH>
    <VSDTC>2013-01-10</VSDTC>
    <VSDY>42</VSDY>
  </row>
  <row>
    <index>23</index>
    <STUDYID>CDISCPILOT01</STUDYID>
    <DOMAIN>VS</DOMAIN>
    <USUBJID>CDISC001</USUBJID>
    <VSSEQ>24</VSSEQ>
    <VSTESTCD>PULSE</VSTESTCD>
    <VSTEST>Pulse Rate</VSTEST>
    <VSPOS>SUPINE</VSPOS>
    <VSORRES>50</VSORRES>
    <VSORRESU>beats/min</VSORRESU>
    <VSSTRESC>50</VSSTRESC>
    <VSSTRESN>50.0</VSSTRESN>
    <VSSTRESU>beats/min</VSSTRESU>
    <VSSTAT/>
    <VSLOC/>
    <VSLOBXFL/>
    <VSREPNUM>1.0</VSREPNUM>
    <VISITNUM>8</VISITNUM>
    <VISIT>WEEK 8</VISIT>
    <EPOCH>TREATMENT</EPOCH>
    <VSDTC>2013-01-23</VSDTC>
    <VSDY>55</VSDY>
  </row>
  <row>
    <index>24</index>
    <STUDYID>CDISCPILOT01</STUDYID>
    <DOMAIN>VS</DOMAIN>
    <USUBJID>CDISC001</USUBJID>
    <VSSEQ>25</VSSEQ>
    <VSTESTCD>PULSE</VSTESTCD>
    <VSTEST>Pulse Rate</VSTEST>
    <VSPOS>STANDING</VSPOS>
    <VSORRES>52</VSORRES>
    <VSORRESU>beats/min</VSORRESU>
    <VSSTRESC>52</VSSTRESC>
    <VSSTRESN>52.0</VSSTRESN>
    <VSSTRESU>beats/min</VSSTRESU>
    <VSSTAT/>
    <VSLOC/>
    <VSLOBXFL/>
    <VSREPNUM>2.0</VSREPNUM>
    <VISITNUM>8</VISITNUM>
    <VISIT>WEEK 8</VISIT>
    <EPOCH>TREATMENT</EPOCH>
    <VSDTC>2013-01-23</VSDTC>
    <VSDY>55</VSDY>
  </row>
  <row>
    <index>25</index>
    <STUDYID>CDISCPILOT01</STUDYID>
    <DOMAIN>VS</DOMAIN>
    <USUBJID>CDISC001</USUBJID>
    <VSSEQ>26</VSSEQ>
    <VSTESTCD>PULSE</VSTESTCD>
    <VSTEST>Pulse Rate</VSTEST>
    <VSPOS>STANDING</VSPOS>
    <VSORRES>54</VSORRES>
    <VSORRESU>beats/min</VSORRESU>
    <VSSTRESC>54</VSSTRESC>
    <VSSTRESN>54.0</VSSTRESN>
    <VSSTRESU>beats/min</VSSTRESU>
    <VSSTAT/>
    <VSLOC/>
    <VSLOBXFL/>
    <VSREPNUM>3.0</VSREPNUM>
    <VISITNUM>8</VISITNUM>
    <VISIT>WEEK 8</VISIT>
    <EPOCH>TREATMENT</EPOCH>
    <VSDTC>2013-01-23</VSDTC>
    <VSDY>55</VSDY>
  </row>
  <row>
    <index>26</index>
    <STUDYID>CDISCPILOT01</STUDYID>
    <DOMAIN>VS</DOMAIN>
    <USUBJID>CDISC001</USUBJID>
    <VSSEQ>27</VSSEQ>
    <VSTESTCD>PULSE</VSTESTCD>
    <VSTEST>Pulse Rate</VSTEST>
    <VSPOS>SUPINE</VSPOS>
    <VSORRES>79</VSORRES>
    <VSORRESU>beats/min</VSORRESU>
    <VSSTRESC>79</VSSTRESC>
    <VSSTRESN>79.0</VSSTRESN>
    <VSSTRESU>beats/min</VSSTRESU>
    <VSSTAT/>
    <VSLOC/>
    <VSLOBXFL/>
    <VSREPNUM>1.0</VSREPNUM>
    <VISITNUM>201</VISITNUM>
    <VISIT>EARLY DISCONTINUATION RETRIEVAL</VISIT>
    <EPOCH>TREATMENT</EPOCH>
    <VSDTC>2013-05-20</VSDTC>
    <VSDY>172</VSDY>
  </row>
  <row>
    <index>27</index>
    <STUDYID>CDISCPILOT01</STUDYID>
    <DOMAIN>VS</DOMAIN>
    <USUBJID>CDISC001</USUBJID>
    <VSSEQ>28</VSSEQ>
    <VSTESTCD>PULSE</VSTESTCD>
    <VSTEST>Pulse Rate</VSTEST>
    <VSPOS>STANDING</VSPOS>
    <VSORRES>98</VSORRES>
    <VSORRESU>beats/min</VSORRESU>
    <VSSTRESC>98</VSSTRESC>
    <VSSTRESN>98.0</VSSTRESN>
    <VSSTRESU>beats/min</VSSTRESU>
    <VSSTAT/>
    <VSLOC/>
    <VSLOBXFL/>
    <VSREPNUM>2.0</VSREPNUM>
    <VISITNUM>201</VISITNUM>
    <VISIT>EARLY DISCONTINUATION RETRIEVAL</VISIT>
    <EPOCH>TREATMENT</EPOCH>
    <VSDTC>2013-05-20</VSDTC>
    <VSDY>172</VSDY>
  </row>
  <row>
    <index>28</index>
    <STUDYID>CDISCPILOT01</STUDYID>
    <DOMAIN>VS</DOMAIN>
    <USUBJID>CDISC001</USUBJID>
    <VSSEQ>29</VSSEQ>
    <VSTESTCD>PULSE</VSTESTCD>
    <VSTEST>Pulse Rate</VSTEST>
    <VSPOS>STANDING</VSPOS>
    <VSORRES>94</VSORRES>
    <VSORRESU>beats/min</VSORRESU>
    <VSSTRESC>94</VSSTRESC>
    <VSSTRESN>94.0</VSSTRESN>
    <VSSTRESU>beats/min</VSSTRESU>
    <VSSTAT/>
    <VSLOC/>
    <VSLOBXFL/>
    <VSREPNUM>3.0</VSREPNUM>
    <VISITNUM>201</VISITNUM>
    <VISIT>EARLY DISCONTINUATION RETRIEVAL</VISIT>
    <EPOCH>TREATMENT</EPOCH>
    <VSDTC>2013-05-20</VSDTC>
    <VSDY>172</VSDY>
  </row>
  <row>
    <index>29</index>
    <STUDYID>CDISCPILOT01</STUDYID>
    <DOMAIN>VS</DOMAIN>
    <USUBJID>CDISC001</USUBJID>
    <VSSEQ>30</VSSEQ>
    <VSTESTCD>SYSBP</VSTESTCD>
    <VSTEST>Systolic Blood Pressure</VSTEST>
    <VSPOS>STANDING</VSPOS>
    <VSORRES>137</VSORRES>
    <VSORRESU>mmHg</VSORRESU>
    <VSSTRESC>137</VSSTRESC>
    <VSSTRESN>137.0</VSSTRESN>
    <VSSTRESU>mmHg</VSSTRESU>
    <VSSTAT/>
    <VSLOC/>
    <VSLOBXFL/>
    <VSREPNUM/>
    <VISITNUM>1</VISITNUM>
    <VISIT>SCREENING 1</VISIT>
    <EPOCH>SCREENING</EPOCH>
    <VSDTC>2012-11-23</VSDTC>
    <VSDY>-7</VSDY>
  </row>
  <row>
    <index>30</index>
    <STUDYID>CDISCPILOT01</STUDYID>
    <DOMAIN>VS</DOMAIN>
    <USUBJID>CDISC001</USUBJID>
    <VSSEQ>31</VSSEQ>
    <VSTESTCD>SYSBP</VSTESTCD>
    <VSTEST>Systolic Blood Pressure</VSTEST>
    <VSPOS>STANDING</VSPOS>
    <VSORRES>137</VSORRES>
    <VSORRESU>mmHg</VSORRESU>
    <VSSTRESC>137</VSSTRESC>
    <VSSTRESN>137.0</VSSTRESN>
    <VSSTRESU>mmHg</VSSTRESU>
    <VSSTAT/>
    <VSLOC/>
    <VSLOBXFL/>
    <VSREPNUM/>
    <VISITNUM>2</VISITNUM>
    <VISIT>SCREENING 2</VISIT>
    <EPOCH>SCREENING</EPOCH>
    <VSDTC>2012-11-28</VSDTC>
    <VSDY>-2</VSDY>
  </row>
  <row>
    <index>31</index>
    <STUDYID>CDISCPILOT01</STUDYID>
    <DOMAIN>VS</DOMAIN>
    <USUBJID>CDISC001</USUBJID>
    <VSSEQ>32</VSSEQ>
    <VSTESTCD>SYSBP</VSTESTCD>
    <VSTEST>Systolic Blood Pressure</VSTEST>
    <VSPOS>STANDING</VSPOS>
    <VSORRES>130</VSORRES>
    <VSORRESU>mmHg</VSORRESU>
    <VSSTRESC>130</VSSTRESC>
    <VSSTRESN>130.0</VSSTRESN>
    <VSSTRESU>mmHg</VSSTRESU>
    <VSSTAT/>
    <VSLOC/>
    <VSLOBXFL>Y</VSLOBXFL>
    <VSREPNUM/>
    <VISITNUM>3</VISITNUM>
    <VISIT>BASELINE</VISIT>
    <EPOCH>SCREENING</EPOCH>
    <VSDTC>2012-11-30</VSDTC>
    <VSDY>1</VSDY>
  </row>
  <row>
    <index>32</index>
    <STUDYID>CDISCPILOT01</STUDYID>
    <DOMAIN>VS</DOMAIN>
    <USUBJID>CDISC001</USUBJID>
    <VSSEQ>33</VSSEQ>
    <VSTESTCD>SYSBP</VSTESTCD>
    <VSTEST>Systolic Blood Pressure</VSTEST>
    <VSPOS>STANDING</VSPOS>
    <VSORRES>122</VSORRES>
    <VSORRESU>mmHg</VSORRESU>
    <VSSTRESC>122</VSSTRESC>
    <VSSTRESN>122.0</VSSTRESN>
    <VSSTRESU>mmHg</VSSTRESU>
    <VSSTAT/>
    <VSLOC/>
    <VSLOBXFL/>
    <VSREPNUM/>
    <VISITNUM>4</VISITNUM>
    <VISIT>WEEK 2</VISIT>
    <EPOCH>TREATMENT</EPOCH>
    <VSDTC>2012-12-13</VSDTC>
    <VSDY>14</VSDY>
  </row>
  <row>
    <index>33</index>
    <STUDYID>CDISCPILOT01</STUDYID>
    <DOMAIN>VS</DOMAIN>
    <USUBJID>CDISC001</USUBJID>
    <VSSEQ>34</VSSEQ>
    <VSTESTCD>SYSBP</VSTESTCD>
    <VSTEST>Systolic Blood Pressure</VSTEST>
    <VSPOS>STANDING</VSPOS>
    <VSORRES>115</VSORRES>
    <VSORRESU>mmHg</VSORRESU>
    <VSSTRESC>115</VSSTRESC>
    <VSSTRESN>115.0</VSSTRESN>
    <VSSTRESU>mmHg</VSSTRESU>
    <VSSTAT/>
    <VSLOC/>
    <VSLOBXFL/>
    <VSREPNUM/>
    <VISITNUM>5</VISITNUM>
    <VISIT>WEEK 4</VISIT>
    <EPOCH>TREATMENT</EPOCH>
    <VSDTC>2012-12-26</VSDTC>
    <VSDY>27</VSDY>
  </row>
  <row>
    <index>34</index>
    <STUDYID>CDISCPILOT01</STUDYID>
    <DOMAIN>VS</DOMAIN>
    <USUBJID>CDISC001</USUBJID>
    <VSSEQ>35</VSSEQ>
    <VSTESTCD>SYSBP</VSTESTCD>
    <VSTEST>Systolic Blood Pressure</VSTEST>
    <VSPOS>SUPINE</VSPOS>
    <VSORRES>131</VSORRES>
    <VSORRESU>mmHg</VSORRESU>
    <VSSTRESC>131</VSSTRESC>
    <VSSTRESN>131.0</VSSTRESN>
    <VSSTRESU>mmHg</VSSTRESU>
    <VSSTAT/>
    <VSLOC/>
    <VSLOBXFL/>
    <VSREPNUM>1.0</VSREPNUM>
    <VISITNUM>7</VISITNUM>
    <VISIT>WEEK 6</VISIT>
    <EPOCH>TREATMENT</EPOCH>
    <VSDTC>2013-01-10</VSDTC>
    <VSDY>42</VSDY>
  </row>
  <row>
    <index>35</index>
    <STUDYID>CDISCPILOT01</STUDYID>
    <DOMAIN>VS</DOMAIN>
    <USUBJID>CDISC001</USUBJID>
    <VSSEQ>36</VSSEQ>
    <VSTESTCD>SYSBP</VSTESTCD>
    <VSTEST>Systolic Blood Pressure</VSTEST>
    <VSPOS>STANDING</VSPOS>
    <VSORRES>107</VSORRES>
    <VSORRESU>mmHg</VSORRESU>
    <VSSTRESC>107</VSSTRESC>
    <VSSTRESN>107.0</VSSTRESN>
    <VSSTRESU>mmHg</VSSTRESU>
    <VSSTAT/>
    <VSLOC/>
    <VSLOBXFL/>
    <VSREPNUM>2.0</VSREPNUM>
    <VISITNUM>7</VISITNUM>
    <VISIT>WEEK 6</VISIT>
    <EPOCH>TREATMENT</EPOCH>
    <VSDTC>2013-01-10</VSDTC>
    <VSDY>42</VSDY>
  </row>
  <row>
    <index>36</index>
    <STUDYID>CDISCPILOT01</STUDYID>
    <DOMAIN>VS</DOMAIN>
    <USUBJID>CDISC001</USUBJID>
    <VSSEQ>37</VSSEQ>
    <VSTESTCD>SYSBP</VSTESTCD>
    <VSTEST>Systolic Blood Pressure</VSTEST>
    <VSPOS>STANDING</VSPOS>
    <VSORRES>104</VSORRES>
    <VSORRESU>mmHg</VSORRESU>
    <VSSTRESC>104</VSSTRESC>
    <VSSTRESN>104.0</VSSTRESN>
    <VSSTRESU>mmHg</VSSTRESU>
    <VSSTAT/>
    <VSLOC/>
    <VSLOBXFL/>
    <VSREPNUM>3.0</VSREPNUM>
    <VISITNUM>7</VISITNUM>
    <VISIT>WEEK 6</VISIT>
    <EPOCH>TREATMENT</EPOCH>
    <VSDTC>2013-01-10</VSDTC>
    <VSDY>42</VSDY>
  </row>
  <row>
    <index>37</index>
    <STUDYID>CDISCPILOT01</STUDYID>
    <DOMAIN>VS</DOMAIN>
    <USUBJID>CDISC001</USUBJID>
    <VSSEQ>38</VSSEQ>
    <VSTESTCD>SYSBP</VSTESTCD>
    <VSTEST>Systolic Blood Pressure</VSTEST>
    <VSPOS>SUPINE</VSPOS>
    <VSORRES>123</VSORRES>
    <VSORRESU>mmHg</VSORRESU>
    <VSSTRESC>123</VSSTRESC>
    <VSSTRESN>123.0</VSSTRESN>
    <VSSTRESU>mmHg</VSSTRESU>
    <VSSTAT/>
    <VSLOC/>
    <VSLOBXFL/>
    <VSREPNUM>1.0</VSREPNUM>
    <VISITNUM>8</VISITNUM>
    <VISIT>WEEK 8</VISIT>
    <EPOCH>TREATMENT</EPOCH>
    <VSDTC>2013-01-23</VSDTC>
    <VSDY>55</VSDY>
  </row>
  <row>
    <index>38</index>
    <STUDYID>CDISCPILOT01</STUDYID>
    <DOMAIN>VS</DOMAIN>
    <USUBJID>CDISC001</USUBJID>
    <VSSEQ>39</VSSEQ>
    <VSTESTCD>SYSBP</VSTESTCD>
    <VSTEST>Systolic Blood Pressure</VSTEST>
    <VSPOS>STANDING</VSPOS>
    <VSORRES>113</VSORRES>
    <VSORRESU>mmHg</VSORRESU>
    <VSSTRESC>113</VSSTRESC>
    <VSSTRESN>113.0</VSSTRESN>
    <VSSTRESU>mmHg</VSSTRESU>
    <VSSTAT/>
    <VSLOC/>
    <VSLOBXFL/>
    <VSREPNUM>2.0</VSREPNUM>
    <VISITNUM>8</VISITNUM>
    <VISIT>WEEK 8</VISIT>
    <EPOCH>TREATMENT</EPOCH>
    <VSDTC>2013-01-23</VSDTC>
    <VSDY>55</VSDY>
  </row>
  <row>
    <index>39</index>
    <STUDYID>CDISCPILOT01</STUDYID>
    <DOMAIN>VS</DOMAIN>
    <USUBJID>CDISC001</USUBJID>
    <VSSEQ>40</VSSEQ>
    <VSTESTCD>SYSBP</VSTESTCD>
    <VSTEST>Systolic Blood Pressure</VSTEST>
    <VSPOS>STANDING</VSPOS>
    <VSORRES>98</VSORRES>
    <VSORRESU>mmHg</VSORRESU>
    <VSSTRESC>98</VSSTRESC>
    <VSSTRESN>98.0</VSSTRESN>
    <VSSTRESU>mmHg</VSSTRESU>
    <VSSTAT/>
    <VSLOC/>
    <VSLOBXFL/>
    <VSREPNUM>3.0</VSREPNUM>
    <VISITNUM>8</VISITNUM>
    <VISIT>WEEK 8</VISIT>
    <EPOCH>TREATMENT</EPOCH>
    <VSDTC>2013-01-23</VSDTC>
    <VSDY>55</VSDY>
  </row>
  <row>
    <index>40</index>
    <STUDYID>CDISCPILOT01</STUDYID>
    <DOMAIN>VS</DOMAIN>
    <USUBJID>CDISC001</USUBJID>
    <VSSEQ>41</VSSEQ>
    <VSTESTCD>SYSBP</VSTESTCD>
    <VSTEST>Systolic Blood Pressure</VSTEST>
    <VSPOS>SUPINE</VSPOS>
    <VSORRES>99</VSORRES>
    <VSORRESU>mmHg</VSORRESU>
    <VSSTRESC>99</VSSTRESC>
    <VSSTRESN>99.0</VSSTRESN>
    <VSSTRESU>mmHg</VSSTRESU>
    <VSSTAT/>
    <VSLOC/>
    <VSLOBXFL/>
    <VSREPNUM>1.0</VSREPNUM>
    <VISITNUM>201</VISITNUM>
    <VISIT>EARLY DISCONTINUATION RETRIEVAL</VISIT>
    <EPOCH>TREATMENT</EPOCH>
    <VSDTC>2013-05-20</VSDTC>
    <VSDY>172</VSDY>
  </row>
  <row>
    <index>41</index>
    <STUDYID>CDISCPILOT01</STUDYID>
    <DOMAIN>VS</DOMAIN>
    <USUBJID>CDISC001</USUBJID>
    <VSSEQ>42</VSSEQ>
    <VSTESTCD>SYSBP</VSTESTCD>
    <VSTEST>Systolic Blood Pressure</VSTEST>
    <VSPOS>STANDING</VSPOS>
    <VSORRES>99</VSORRES>
    <VSORRESU>mmHg</VSORRESU>
    <VSSTRESC>99</VSSTRESC>
    <VSSTRESN>99.0</VSSTRESN>
    <VSSTRESU>mmHg</VSSTRESU>
    <VSSTAT/>
    <VSLOC/>
    <VSLOBXFL/>
    <VSREPNUM>2.0</VSREPNUM>
    <VISITNUM>201</VISITNUM>
    <VISIT>EARLY DISCONTINUATION RETRIEVAL</VISIT>
    <EPOCH>TREATMENT</EPOCH>
    <VSDTC>2013-05-20</VSDTC>
    <VSDY>172</VSDY>
  </row>
  <row>
    <index>42</index>
    <STUDYID>CDISCPILOT01</STUDYID>
    <DOMAIN>VS</DOMAIN>
    <USUBJID>CDISC001</USUBJID>
    <VSSEQ>43</VSSEQ>
    <VSTESTCD>SYSBP</VSTESTCD>
    <VSTEST>Systolic Blood Pressure</VSTEST>
    <VSPOS>STANDING</VSPOS>
    <VSORRES>99</VSORRES>
    <VSORRESU>mmHg</VSORRESU>
    <VSSTRESC>99</VSSTRESC>
    <VSSTRESN>99.0</VSSTRESN>
    <VSSTRESU>mmHg</VSSTRESU>
    <VSSTAT/>
    <VSLOC/>
    <VSLOBXFL/>
    <VSREPNUM>3.0</VSREPNUM>
    <VISITNUM>201</VISITNUM>
    <VISIT>EARLY DISCONTINUATION RETRIEVAL</VISIT>
    <EPOCH>TREATMENT</EPOCH>
    <VSDTC>2013-05-20</VSDTC>
    <VSDY>172</VSDY>
  </row>
  <row>
    <index>43</index>
    <STUDYID>CDISCPILOT01</STUDYID>
    <DOMAIN>VS</DOMAIN>
    <USUBJID>CDISC001</USUBJID>
    <VSSEQ>44</VSSEQ>
    <VSTESTCD>TEMP</VSTESTCD>
    <VSTEST>Temperature</VSTEST>
    <VSPOS/>
    <VSORRES>97.4</VSORRES>
    <VSORRESU>F</VSORRESU>
    <VSSTRESC>36.33</VSSTRESC>
    <VSSTRESN>36.33</VSSTRESN>
    <VSSTRESU>C</VSSTRESU>
    <VSSTAT/>
    <VSLOC>ORAL CAVITY</VSLOC>
    <VSLOBXFL/>
    <VSREPNUM/>
    <VISITNUM>1</VISITNUM>
    <VISIT>SCREENING 1</VISIT>
    <EPOCH>SCREENING</EPOCH>
    <VSDTC>2012-11-23</VSDTC>
    <VSDY>-7</VSDY>
  </row>
  <row>
    <index>44</index>
    <STUDYID>CDISCPILOT01</STUDYID>
    <DOMAIN>VS</DOMAIN>
    <USUBJID>CDISC001</USUBJID>
    <VSSEQ>45</VSSEQ>
    <VSTESTCD>TEMP</VSTESTCD>
    <VSTEST>Temperature</VSTEST>
    <VSPOS/>
    <VSORRES>97.2</VSORRES>
    <VSORRESU>F</VSORRESU>
    <VSSTRESC>36.22</VSSTRESC>
    <VSSTRESN>36.22</VSSTRESN>
    <VSSTRESU>C</VSSTRESU>
    <VSSTAT/>
    <VSLOC>ORAL CAVITY</VSLOC>
    <VSLOBXFL/>
    <VSREPNUM/>
    <VISITNUM>2</VISITNUM>
    <VISIT>SCREENING 2</VISIT>
    <EPOCH>SCREENING</EPOCH>
    <VSDTC>2012-11-28</VSDTC>
    <VSDY>-2</VSDY>
  </row>
  <row>
    <index>45</index>
    <STUDYID>CDISCPILOT01</STUDYID>
    <DOMAIN>VS</DOMAIN>
    <USUBJID>CDISC001</USUBJID>
    <VSSEQ>46</VSSEQ>
    <VSTESTCD>TEMP</VSTESTCD>
    <VSTEST>Temperature</VSTEST>
    <VSPOS/>
    <VSORRES>98.0</VSORRES>
    <VSORRESU>F</VSORRESU>
    <VSSTRESC>36.67</VSSTRESC>
    <VSSTRESN>36.67</VSSTRESN>
    <VSSTRESU>C</VSSTRESU>
    <VSSTAT/>
    <VSLOC>ORAL CAVITY</VSLOC>
    <VSLOBXFL>Y</VSLOBXFL>
    <VSREPNUM/>
    <VISITNUM>3</VISITNUM>
    <VISIT>BASELINE</VISIT>
    <EPOCH>SCREENING</EPOCH>
    <VSDTC>2012-11-30</VSDTC>
    <VSDY>1</VSDY>
  </row>
  <row>
    <index>46</index>
    <STUDYID>CDISCPILOT01</STUDYID>
    <DOMAIN>VS</DOMAIN>
    <USUBJID>CDISC001</USUBJID>
    <VSSEQ>47</VSSEQ>
    <VSTESTCD>TEMP</VSTESTCD>
    <VSTEST>Temperature</VSTEST>
    <VSPOS/>
    <VSORRES>98.0</VSORRES>
    <VSORRESU>F</VSORRESU>
    <VSSTRESC>36.67</VSSTRESC>
    <VSSTRESN>36.67</VSSTRESN>
    <VSSTRESU>C</VSSTRESU>
    <VSSTAT/>
    <VSLOC>ORAL CAVITY</VSLOC>
    <VSLOBXFL/>
    <VSREPNUM/>
    <VISITNUM>4</VISITNUM>
    <VISIT>WEEK 2</VISIT>
    <EPOCH>TREATMENT</EPOCH>
    <VSDTC>2012-12-13</VSDTC>
    <VSDY>14</VSDY>
  </row>
  <row>
    <index>47</index>
    <STUDYID>CDISCPILOT01</STUDYID>
    <DOMAIN>VS</DOMAIN>
    <USUBJID>CDISC001</USUBJID>
    <VSSEQ>48</VSSEQ>
    <VSTESTCD>TEMP</VSTESTCD>
    <VSTEST>Temperature</VSTEST>
    <VSPOS/>
    <VSORRES>97.7</VSORRES>
    <VSORRESU>F</VSORRESU>
    <VSSTRESC>36.5</VSSTRESC>
    <VSSTRESN>36.5</VSSTRESN>
    <VSSTRESU>C</VSSTRESU>
    <VSSTAT/>
    <VSLOC>ORAL CAVITY</VSLOC>
    <VSLOBXFL/>
    <VSREPNUM/>
    <VISITNUM>5</VISITNUM>
    <VISIT>WEEK 4</VISIT>
    <EPOCH>TREATMENT</EPOCH>
    <VSDTC>2012-12-26</VSDTC>
    <VSDY>27</VSDY>
  </row>
  <row>
    <index>48</index>
    <STUDYID>CDISCPILOT01</STUDYID>
    <DOMAIN>VS</DOMAIN>
    <USUBJID>CDISC001</USUBJID>
    <VSSEQ>49</VSSEQ>
    <VSTESTCD>TEMP</VSTESTCD>
    <VSTEST>Temperature</VSTEST>
    <VSPOS/>
    <VSORRES>97.6</VSORRES>
    <VSORRESU>F</VSORRESU>
    <VSSTRESC>36.44</VSSTRESC>
    <VSSTRESN>36.44</VSSTRESN>
    <VSSTRESU>C</VSSTRESU>
    <VSSTAT/>
    <VSLOC>ORAL CAVITY</VSLOC>
    <VSLOBXFL/>
    <VSREPNUM/>
    <VISITNUM>7</VISITNUM>
    <VISIT>WEEK 6</VISIT>
    <EPOCH>TREATMENT</EPOCH>
    <VSDTC>2013-01-10</VSDTC>
    <VSDY>42</VSDY>
  </row>
  <row>
    <index>49</index>
    <STUDYID>CDISCPILOT01</STUDYID>
    <DOMAIN>VS</DOMAIN>
    <USUBJID>CDISC001</USUBJID>
    <VSSEQ>50</VSSEQ>
    <VSTESTCD>TEMP</VSTESTCD>
    <VSTEST>Temperature</VSTEST>
    <VSPOS/>
    <VSORRES>97.6</VSORRES>
    <VSORRESU>F</VSORRESU>
    <VSSTRESC>36.44</VSSTRESC>
    <VSSTRESN>36.44</VSSTRESN>
    <VSSTRESU>C</VSSTRESU>
    <VSSTAT/>
    <VSLOC>ORAL CAVITY</VSLOC>
    <VSLOBXFL/>
    <VSREPNUM/>
    <VISITNUM>8</VISITNUM>
    <VISIT>WEEK 8</VISIT>
    <EPOCH>TREATMENT</EPOCH>
    <VSDTC>2013-01-23</VSDTC>
    <VSDY>55</VSDY>
  </row>
  <row>
    <index>50</index>
    <STUDYID>CDISCPILOT01</STUDYID>
    <DOMAIN>VS</DOMAIN>
    <USUBJID>CDISC001</USUBJID>
    <VSSEQ>51</VSSEQ>
    <VSTESTCD>TEMP</VSTESTCD>
    <VSTEST>Temperature</VSTEST>
    <VSPOS/>
    <VSORRES>97.4</VSORRES>
    <VSORRESU>F</VSORRESU>
    <VSSTRESC>36.33</VSSTRESC>
    <VSSTRESN>36.33</VSSTRESN>
    <VSSTRESU>C</VSSTRESU>
    <VSSTAT/>
    <VSLOC>ORAL CAVITY</VSLOC>
    <VSLOBXFL/>
    <VSREPNUM/>
    <VISITNUM>201</VISITNUM>
    <VISIT>EARLY DISCONTINUATION RETRIEVAL</VISIT>
    <EPOCH>TREATMENT</EPOCH>
    <VSDTC>2013-05-20</VSDTC>
    <VSDY>172</VSDY>
  </row>
  <row>
    <index>51</index>
    <STUDYID>CDISCPILOT01</STUDYID>
    <DOMAIN>VS</DOMAIN>
    <USUBJID>CDISC001</USUBJID>
    <VSSEQ>52</VSSEQ>
    <VSTESTCD>WEIGHT</VSTESTCD>
    <VSTEST>Weight</VSTEST>
    <VSPOS/>
    <VSORRES>173.5</VSORRES>
    <VSORRESU>LB</VSORRESU>
    <VSSTRESC>78.7</VSSTRESC>
    <VSSTRESN>78.7</VSSTRESN>
    <VSSTRESU>kg</VSSTRESU>
    <VSSTAT/>
    <VSLOC/>
    <VSLOBXFL/>
    <VSREPNUM/>
    <VISITNUM>1</VISITNUM>
    <VISIT>SCREENING 1</VISIT>
    <EPOCH>SCREENING</EPOCH>
    <VSDTC>2012-11-23</VSDTC>
    <VSDY>-7</VSDY>
  </row>
  <row>
    <index>52</index>
    <STUDYID>CDISCPILOT01</STUDYID>
    <DOMAIN>VS</DOMAIN>
    <USUBJID>CDISC001</USUBJID>
    <VSSEQ>53</VSSEQ>
    <VSTESTCD>WEIGHT</VSTESTCD>
    <VSTEST>Weight</VSTEST>
    <VSPOS/>
    <VSORRES>174.0</VSORRES>
    <VSORRESU>LB</VSORRESU>
    <VSSTRESC>78.93</VSSTRESC>
    <VSSTRESN>78.93</VSSTRESN>
    <VSSTRESU>kg</VSSTRESU>
    <VSSTAT/>
    <VSLOC/>
    <VSLOBXFL>Y</VSLOBXFL>
    <VSREPNUM/>
    <VISITNUM>3</VISITNUM>
    <VISIT>BASELINE</VISIT>
    <EPOCH>SCREENING</EPOCH>
    <VSDTC>2012-11-30</VSDTC>
    <VSDY>1</VSDY>
  </row>
  <row>
    <index>53</index>
    <STUDYID>CDISCPILOT01</STUDYID>
    <DOMAIN>VS</DOMAIN>
    <USUBJID>CDISC001</USUBJID>
    <VSSEQ>54</VSSEQ>
    <VSTESTCD>WEIGHT</VSTESTCD>
    <VSTEST>Weight</VSTEST>
    <VSPOS/>
    <VSORRES>174.0</VSORRES>
    <VSORRESU>LB</VSORRESU>
    <VSSTRESC>78.93</VSSTRESC>
    <VSSTRESN>78.93</VSSTRESN>
    <VSSTRESU>kg</VSSTRESU>
    <VSSTAT/>
    <VSLOC/>
    <VSLOBXFL/>
    <VSREPNUM/>
    <VISITNUM>4</VISITNUM>
    <VISIT>WEEK 2</VISIT>
    <EPOCH>TREATMENT</EPOCH>
    <VSDTC>2012-12-13</VSDTC>
    <VSDY>14</VSDY>
  </row>
  <row>
    <index>54</index>
    <STUDYID>CDISCPILOT01</STUDYID>
    <DOMAIN>VS</DOMAIN>
    <USUBJID>CDISC001</USUBJID>
    <VSSEQ>55</VSSEQ>
    <VSTESTCD>WEIGHT</VSTESTCD>
    <VSTEST>Weight</VSTEST>
    <VSPOS/>
    <VSORRES>173.0</VSORRES>
    <VSORRESU>LB</VSORRESU>
    <VSSTRESC>78.47</VSSTRESC>
    <VSSTRESN>78.47</VSSTRESN>
    <VSSTRESU>kg</VSSTRESU>
    <VSSTAT/>
    <VSLOC/>
    <VSLOBXFL/>
    <VSREPNUM/>
    <VISITNUM>5</VISITNUM>
    <VISIT>WEEK 4</VISIT>
    <EPOCH>TREATMENT</EPOCH>
    <VSDTC>2012-12-26</VSDTC>
    <VSDY>27</VSDY>
  </row>
  <row>
    <index>55</index>
    <STUDYID>CDISCPILOT01</STUDYID>
    <DOMAIN>VS</DOMAIN>
    <USUBJID>CDISC001</USUBJID>
    <VSSEQ>56</VSSEQ>
    <VSTESTCD>WEIGHT</VSTESTCD>
    <VSTEST>Weight</VSTEST>
    <VSPOS/>
    <VSORRES>173.0</VSORRES>
    <VSORRESU>LB</VSORRESU>
    <VSSTRESC>78.47</VSSTRESC>
    <VSSTRESN>78.47</VSSTRESN>
    <VSSTRESU>kg</VSSTRESU>
    <VSSTAT/>
    <VSLOC/>
    <VSLOBXFL/>
    <VSREPNUM/>
    <VISITNUM>7</VISITNUM>
    <VISIT>WEEK 6</VISIT>
    <EPOCH>TREATMENT</EPOCH>
    <VSDTC>2013-01-10</VSDTC>
    <VSDY>42</VSDY>
  </row>
  <row>
    <index>56</index>
    <STUDYID>CDISCPILOT01</STUDYID>
    <DOMAIN>VS</DOMAIN>
    <USUBJID>CDISC001</USUBJID>
    <VSSEQ>57</VSSEQ>
    <VSTESTCD>WEIGHT</VSTESTCD>
    <VSTEST>Weight</VSTEST>
    <VSPOS/>
    <VSORRES>173.0</VSORRES>
    <VSORRESU>LB</VSORRESU>
    <VSSTRESC>78.47</VSSTRESC>
    <VSSTRESN>78.47</VSSTRESN>
    <VSSTRESU>kg</VSSTRESU>
    <VSSTAT/>
    <VSLOC/>
    <VSLOBXFL/>
    <VSREPNUM/>
    <VISITNUM>8</VISITNUM>
    <VISIT>WEEK 8</VISIT>
    <EPOCH>TREATMENT</EPOCH>
    <VSDTC>2013-01-23</VSDTC>
    <VSDY>55</VSDY>
  </row>
  <row>
    <index>57</index>
    <STUDYID>CDISCPILOT01</STUDYID>
    <DOMAIN>VS</DOMAIN>
    <USUBJID>CDISC002</USUBJID>
    <VSSEQ>1</VSSEQ>
    <VSTESTCD>DIABP</VSTESTCD>
    <VSTEST>Diastolic Blood Pressure</VSTEST>
    <VSPOS>STANDING</VSPOS>
    <VSORRES>60</VSORRES>
    <VSORRESU>mmHg</VSORRESU>
    <VSSTRESC>60</VSSTRESC>
    <VSSTRESN>60.0</VSSTRESN>
    <VSSTRESU>mmHg</VSSTRESU>
    <VSSTAT/>
    <VSLOC/>
    <VSLOBXFL/>
    <VSREPNUM/>
    <VISITNUM>1</VISITNUM>
    <VISIT>SCREENING 1</VISIT>
    <EPOCH>SCREENING</EPOCH>
    <VSDTC>2012-10-30</VSDTC>
    <VSDY>-16</VSDY>
  </row>
  <row>
    <index>58</index>
    <STUDYID>CDISCPILOT01</STUDYID>
    <DOMAIN>VS</DOMAIN>
    <USUBJID>CDISC002</USUBJID>
    <VSSEQ>2</VSSEQ>
    <VSTESTCD>DIABP</VSTESTCD>
    <VSTEST>Diastolic Blood Pressure</VSTEST>
    <VSPOS>STANDING</VSPOS>
    <VSORRES>64</VSORRES>
    <VSORRESU>mmHg</VSORRESU>
    <VSSTRESC>64</VSSTRESC>
    <VSSTRESN>64.0</VSSTRESN>
    <VSSTRESU>mmHg</VSSTRESU>
    <VSSTAT/>
    <VSLOC/>
    <VSLOBXFL/>
    <VSREPNUM/>
    <VISITNUM>2</VISITNUM>
    <VISIT>SCREENING 2</VISIT>
    <EPOCH>SCREENING</EPOCH>
    <VSDTC>2012-11-14</VSDTC>
    <VSDY>-1</VSDY>
  </row>
  <row>
    <index>59</index>
    <STUDYID>CDISCPILOT01</STUDYID>
    <DOMAIN>VS</DOMAIN>
    <USUBJID>CDISC002</USUBJID>
    <VSSEQ>3</VSSEQ>
    <VSTESTCD>DIABP</VSTESTCD>
    <VSTEST>Diastolic Blood Pressure</VSTEST>
    <VSPOS>STANDING</VSPOS>
    <VSORRES>64</VSORRES>
    <VSORRESU>mmHg</VSORRESU>
    <VSSTRESC>64</VSSTRESC>
    <VSSTRESN>64.0</VSSTRESN>
    <VSSTRESU>mmHg</VSSTRESU>
    <VSSTAT/>
    <VSLOC/>
    <VSLOBXFL>Y</VSLOBXFL>
    <VSREPNUM/>
    <VISITNUM>3</VISITNUM>
    <VISIT>BASELINE</VISIT>
    <EPOCH>SCREENING</EPOCH>
    <VSDTC>2012-11-15</VSDTC>
    <VSDY>1</VSDY>
  </row>
  <row>
    <index>60</index>
    <STUDYID>CDISCPILOT01</STUDYID>
    <DOMAIN>VS</DOMAIN>
    <USUBJID>CDISC002</USUBJID>
    <VSSEQ>4</VSSEQ>
    <VSTESTCD>DIABP</VSTESTCD>
    <VSTEST>Diastolic Blood Pressure</VSTEST>
    <VSPOS>STANDING</VSPOS>
    <VSORRES>58</VSORRES>
    <VSORRESU>mmHg</VSORRESU>
    <VSSTRESC>58</VSSTRESC>
    <VSSTRESN>58.0</VSSTRESN>
    <VSSTRESU>mmHg</VSSTRESU>
    <VSSTAT/>
    <VSLOC/>
    <VSLOBXFL/>
    <VSREPNUM/>
    <VISITNUM>4</VISITNUM>
    <VISIT>WEEK 2</VISIT>
    <EPOCH>TREATMENT</EPOCH>
    <VSDTC>2012-11-28</VSDTC>
    <VSDY>14</VSDY>
  </row>
  <row>
    <index>61</index>
    <STUDYID>CDISCPILOT01</STUDYID>
    <DOMAIN>VS</DOMAIN>
    <USUBJID>CDISC002</USUBJID>
    <VSSEQ>5</VSSEQ>
    <VSTESTCD>DIABP</VSTESTCD>
    <VSTEST>Diastolic Blood Pressure</VSTEST>
    <VSPOS>STANDING</VSPOS>
    <VSORRES>55</VSORRES>
    <VSORRESU>mmHg</VSORRESU>
    <VSSTRESC>55</VSSTRESC>
    <VSSTRESN>55.0</VSSTRESN>
    <VSSTRESU>mmHg</VSSTRESU>
    <VSSTAT/>
    <VSLOC/>
    <VSLOBXFL/>
    <VSREPNUM/>
    <VISITNUM>5</VISITNUM>
    <VISIT>WEEK 4</VISIT>
    <EPOCH>TREATMENT</EPOCH>
    <VSDTC>2012-12-11</VSDTC>
    <VSDY>27</VSDY>
  </row>
  <row>
    <index>62</index>
    <STUDYID>CDISCPILOT01</STUDYID>
    <DOMAIN>VS</DOMAIN>
    <USUBJID>CDISC002</USUBJID>
    <VSSEQ>6</VSSEQ>
    <VSTESTCD>DIABP</VSTESTCD>
    <VSTEST>Diastolic Blood Pressure</VSTEST>
    <VSPOS>STANDING</VSPOS>
    <VSORRES>60</VSORRES>
    <VSORRESU>mmHg</VSORRESU>
    <VSSTRESC>60</VSSTRESC>
    <VSSTRESN>60.0</VSSTRESN>
    <VSSTRESU>mmHg</VSSTRESU>
    <VSSTAT/>
    <VSLOC/>
    <VSLOBXFL/>
    <VSREPNUM/>
    <VISITNUM>7</VISITNUM>
    <VISIT>WEEK 6</VISIT>
    <EPOCH>TREATMENT</EPOCH>
    <VSDTC>2012-12-25</VSDTC>
    <VSDY>41</VSDY>
  </row>
  <row>
    <index>63</index>
    <STUDYID>CDISCPILOT01</STUDYID>
    <DOMAIN>VS</DOMAIN>
    <USUBJID>CDISC002</USUBJID>
    <VSSEQ>7</VSSEQ>
    <VSTESTCD>DIABP</VSTESTCD>
    <VSTEST>Diastolic Blood Pressure</VSTEST>
    <VSPOS>SUPINE</VSPOS>
    <VSORRES>59</VSORRES>
    <VSORRESU>mmHg</VSORRESU>
    <VSSTRESC>59</VSSTRESC>
    <VSSTRESN>59.0</VSSTRESN>
    <VSSTRESU>mmHg</VSSTRESU>
    <VSSTAT/>
    <VSLOC/>
    <VSLOBXFL/>
    <VSREPNUM>1.0</VSREPNUM>
    <VISITNUM>8</VISITNUM>
    <VISIT>WEEK 8</VISIT>
    <EPOCH>TREATMENT</EPOCH>
    <VSDTC>2013-01-08</VSDTC>
    <VSDY>55</VSDY>
  </row>
  <row>
    <index>64</index>
    <STUDYID>CDISCPILOT01</STUDYID>
    <DOMAIN>VS</DOMAIN>
    <USUBJID>CDISC002</USUBJID>
    <VSSEQ>8</VSSEQ>
    <VSTESTCD>DIABP</VSTESTCD>
    <VSTEST>Diastolic Blood Pressure</VSTEST>
    <VSPOS>STANDING</VSPOS>
    <VSORRES>65</VSORRES>
    <VSORRESU>mmHg</VSORRESU>
    <VSSTRESC>65</VSSTRESC>
    <VSSTRESN>65.0</VSSTRESN>
    <VSSTRESU>mmHg</VSSTRESU>
    <VSSTAT/>
    <VSLOC/>
    <VSLOBXFL/>
    <VSREPNUM>2.0</VSREPNUM>
    <VISITNUM>8</VISITNUM>
    <VISIT>WEEK 8</VISIT>
    <EPOCH>TREATMENT</EPOCH>
    <VSDTC>2013-01-08</VSDTC>
    <VSDY>55</VSDY>
  </row>
  <row>
    <index>65</index>
    <STUDYID>CDISCPILOT01</STUDYID>
    <DOMAIN>VS</DOMAIN>
    <USUBJID>CDISC002</USUBJID>
    <VSSEQ>9</VSSEQ>
    <VSTESTCD>DIABP</VSTESTCD>
    <VSTEST>Diastolic Blood Pressure</VSTEST>
    <VSPOS>STANDING</VSPOS>
    <VSORRES>68</VSORRES>
    <VSORRESU>mmHg</VSORRESU>
    <VSSTRESC>68</VSSTRESC>
    <VSSTRESN>68.0</VSSTRESN>
    <VSSTRESU>mmHg</VSSTRESU>
    <VSSTAT/>
    <VSLOC/>
    <VSLOBXFL/>
    <VSREPNUM>3.0</VSREPNUM>
    <VISITNUM>8</VISITNUM>
    <VISIT>WEEK 8</VISIT>
    <EPOCH>TREATMENT</EPOCH>
    <VSDTC>2013-01-08</VSDTC>
    <VSDY>55</VSDY>
  </row>
  <row>
    <index>66</index>
    <STUDYID>CDISCPILOT01</STUDYID>
    <DOMAIN>VS</DOMAIN>
    <USUBJID>CDISC002</USUBJID>
    <VSSEQ>10</VSSEQ>
    <VSTESTCD>HEIGHT</VSTESTCD>
    <VSTEST>Height</VSTEST>
    <VSPOS/>
    <VSORRES>63.0</VSORRES>
    <VSORRESU>in</VSORRESU>
    <VSSTRESC>160.02</VSSTRESC>
    <VSSTRESN>160.02</VSSTRESN>
    <VSSTRESU>cm</VSSTRESU>
    <VSSTAT/>
    <VSLOC/>
    <VSLOBXFL/>
    <VSREPNUM/>
    <VISITNUM>1</VISITNUM>
    <VISIT>SCREENING 1</VISIT>
    <EPOCH>SCREENING</EPOCH>
    <VSDTC>2012-10-30</VSDTC>
    <VSDY>-16</VSDY>
  </row>
  <row>
    <index>67</index>
    <STUDYID>CDISCPILOT01</STUDYID>
    <DOMAIN>VS</DOMAIN>
    <USUBJID>CDISC002</USUBJID>
    <VSSEQ>11</VSSEQ>
    <VSTESTCD>PULSE</VSTESTCD>
    <VSTEST>Pulse Rate</VSTEST>
    <VSPOS>STANDING</VSPOS>
    <VSORRES>55</VSORRES>
    <VSORRESU>beats/min</VSORRESU>
    <VSSTRESC>55</VSSTRESC>
    <VSSTRESN>55.0</VSSTRESN>
    <VSSTRESU>beats/min</VSSTRESU>
    <VSSTAT/>
    <VSLOC/>
    <VSLOBXFL/>
    <VSREPNUM/>
    <VISITNUM>1</VISITNUM>
    <VISIT>SCREENING 1</VISIT>
    <EPOCH>SCREENING</EPOCH>
    <VSDTC>2012-10-30</VSDTC>
    <VSDY>-16</VSDY>
  </row>
  <row>
    <index>68</index>
    <STUDYID>CDISCPILOT01</STUDYID>
    <DOMAIN>VS</DOMAIN>
    <USUBJID>CDISC002</USUBJID>
    <VSSEQ>12</VSSEQ>
    <VSTESTCD>PULSE</VSTESTCD>
    <VSTEST>Pulse Rate</VSTEST>
    <VSPOS>STANDING</VSPOS>
    <VSORRES>66</VSORRES>
    <VSORRESU>beats/min</VSORRESU>
    <VSSTRESC>66</VSSTRESC>
    <VSSTRESN>66.0</VSSTRESN>
    <VSSTRESU>beats/min</VSSTRESU>
    <VSSTAT/>
    <VSLOC/>
    <VSLOBXFL/>
    <VSREPNUM/>
    <VISITNUM>2</VISITNUM>
    <VISIT>SCREENING 2</VISIT>
    <EPOCH>SCREENING</EPOCH>
    <VSDTC>2012-11-14</VSDTC>
    <VSDY>-1</VSDY>
  </row>
  <row>
    <index>69</index>
    <STUDYID>CDISCPILOT01</STUDYID>
    <DOMAIN>VS</DOMAIN>
    <USUBJID>CDISC002</USUBJID>
    <VSSEQ>13</VSSEQ>
    <VSTESTCD>PULSE</VSTESTCD>
    <VSTEST>Pulse Rate</VSTEST>
    <VSPOS>STANDING</VSPOS>
    <VSORRES>57</VSORRES>
    <VSORRESU>beats/min</VSORRESU>
    <VSSTRESC>57</VSSTRESC>
    <VSSTRESN>57.0</VSSTRESN>
    <VSSTRESU>beats/min</VSSTRESU>
    <VSSTAT/>
    <VSLOC/>
    <VSLOBXFL>Y</VSLOBXFL>
    <VSREPNUM/>
    <VISITNUM>3</VISITNUM>
    <VISIT>BASELINE</VISIT>
    <EPOCH>SCREENING</EPOCH>
    <VSDTC>2012-11-15</VSDTC>
    <VSDY>1</VSDY>
  </row>
  <row>
    <index>70</index>
    <STUDYID>CDISCPILOT01</STUDYID>
    <DOMAIN>VS</DOMAIN>
    <USUBJID>CDISC002</USUBJID>
    <VSSEQ>14</VSSEQ>
    <VSTESTCD>PULSE</VSTESTCD>
    <VSTEST>Pulse Rate</VSTEST>
    <VSPOS>STANDING</VSPOS>
    <VSORRES>74</VSORRES>
    <VSORRESU>beats/min</VSORRESU>
    <VSSTRESC>74</VSSTRESC>
    <VSSTRESN>74.0</VSSTRESN>
    <VSSTRESU>beats/min</VSSTRESU>
    <VSSTAT/>
    <VSLOC/>
    <VSLOBXFL/>
    <VSREPNUM/>
    <VISITNUM>4</VISITNUM>
    <VISIT>WEEK 2</VISIT>
    <EPOCH>TREATMENT</EPOCH>
    <VSDTC>2012-11-28</VSDTC>
    <VSDY>14</VSDY>
  </row>
  <row>
    <index>71</index>
    <STUDYID>CDISCPILOT01</STUDYID>
    <DOMAIN>VS</DOMAIN>
    <USUBJID>CDISC002</USUBJID>
    <VSSEQ>15</VSSEQ>
    <VSTESTCD>PULSE</VSTESTCD>
    <VSTEST>Pulse Rate</VSTEST>
    <VSPOS>STANDING</VSPOS>
    <VSORRES>66</VSORRES>
    <VSORRESU>beats/min</VSORRESU>
    <VSSTRESC>66</VSSTRESC>
    <VSSTRESN>66.0</VSSTRESN>
    <VSSTRESU>beats/min</VSSTRESU>
    <VSSTAT/>
    <VSLOC/>
    <VSLOBXFL/>
    <VSREPNUM/>
    <VISITNUM>5</VISITNUM>
    <VISIT>WEEK 4</VISIT>
    <EPOCH>TREATMENT</EPOCH>
    <VSDTC>2012-12-11</VSDTC>
    <VSDY>27</VSDY>
  </row>
  <row>
    <index>72</index>
    <STUDYID>CDISCPILOT01</STUDYID>
    <DOMAIN>VS</DOMAIN>
    <USUBJID>CDISC002</USUBJID>
    <VSSEQ>16</VSSEQ>
    <VSTESTCD>PULSE</VSTESTCD>
    <VSTEST>Pulse Rate</VSTEST>
    <VSPOS>STANDING</VSPOS>
    <VSORRES>63</VSORRES>
    <VSORRESU>beats/min</VSORRESU>
    <VSSTRESC>63</VSSTRESC>
    <VSSTRESN>63.0</VSSTRESN>
    <VSSTRESU>beats/min</VSSTRESU>
    <VSSTAT/>
    <VSLOC/>
    <VSLOBXFL/>
    <VSREPNUM/>
    <VISITNUM>7</VISITNUM>
    <VISIT>WEEK 6</VISIT>
    <EPOCH>TREATMENT</EPOCH>
    <VSDTC>2012-12-25</VSDTC>
    <VSDY>41</VSDY>
  </row>
  <row>
    <index>73</index>
    <STUDYID>CDISCPILOT01</STUDYID>
    <DOMAIN>VS</DOMAIN>
    <USUBJID>CDISC002</USUBJID>
    <VSSEQ>17</VSSEQ>
    <VSTESTCD>PULSE</VSTESTCD>
    <VSTEST>Pulse Rate</VSTEST>
    <VSPOS>SUPINE</VSPOS>
    <VSORRES>65</VSORRES>
    <VSORRESU>beats/min</VSORRESU>
    <VSSTRESC>65</VSSTRESC>
    <VSSTRESN>65.0</VSSTRESN>
    <VSSTRESU>beats/min</VSSTRESU>
    <VSSTAT/>
    <VSLOC/>
    <VSLOBXFL/>
    <VSREPNUM>1.0</VSREPNUM>
    <VISITNUM>8</VISITNUM>
    <VISIT>WEEK 8</VISIT>
    <EPOCH>TREATMENT</EPOCH>
    <VSDTC>2013-01-08</VSDTC>
    <VSDY>55</VSDY>
  </row>
  <row>
    <index>74</index>
    <STUDYID>CDISCPILOT01</STUDYID>
    <DOMAIN>VS</DOMAIN>
    <USUBJID>CDISC002</USUBJID>
    <VSSEQ>18</VSSEQ>
    <VSTESTCD>PULSE</VSTESTCD>
    <VSTEST>Pulse Rate</VSTEST>
    <VSPOS>STANDING</VSPOS>
    <VSORRES>75</VSORRES>
    <VSORRESU>beats/min</VSORRESU>
    <VSSTRESC>75</VSSTRESC>
    <VSSTRESN>75.0</VSSTRESN>
    <VSSTRESU>beats/min</VSSTRESU>
    <VSSTAT/>
    <VSLOC/>
    <VSLOBXFL/>
    <VSREPNUM>2.0</VSREPNUM>
    <VISITNUM>8</VISITNUM>
    <VISIT>WEEK 8</VISIT>
    <EPOCH>TREATMENT</EPOCH>
    <VSDTC>2013-01-08</VSDTC>
    <VSDY>55</VSDY>
  </row>
  <row>
    <index>75</index>
    <STUDYID>CDISCPILOT01</STUDYID>
    <DOMAIN>VS</DOMAIN>
    <USUBJID>CDISC002</USUBJID>
    <VSSEQ>19</VSSEQ>
    <VSTESTCD>PULSE</VSTESTCD>
    <VSTEST>Pulse Rate</VSTEST>
    <VSPOS>STANDING</VSPOS>
    <VSORRES>74</VSORRES>
    <VSORRESU>beats/min</VSORRESU>
    <VSSTRESC>74</VSSTRESC>
    <VSSTRESN>74.0</VSSTRESN>
    <VSSTRESU>beats/min</VSSTRESU>
    <VSSTAT/>
    <VSLOC/>
    <VSLOBXFL/>
    <VSREPNUM>3.0</VSREPNUM>
    <VISITNUM>8</VISITNUM>
    <VISIT>WEEK 8</VISIT>
    <EPOCH>TREATMENT</EPOCH>
    <VSDTC>2013-01-08</VSDTC>
    <VSDY>55</VSDY>
  </row>
  <row>
    <index>76</index>
    <STUDYID>CDISCPILOT01</STUDYID>
    <DOMAIN>VS</DOMAIN>
    <USUBJID>CDISC002</USUBJID>
    <VSSEQ>20</VSSEQ>
    <VSTESTCD>SYSBP</VSTESTCD>
    <VSTEST>Systolic Blood Pressure</VSTEST>
    <VSPOS>STANDING</VSPOS>
    <VSORRES>144</VSORRES>
    <VSORRESU>mmHg</VSORRESU>
    <VSSTRESC>144</VSSTRESC>
    <VSSTRESN>144.0</VSSTRESN>
    <VSSTRESU>mmHg</VSSTRESU>
    <VSSTAT/>
    <VSLOC/>
    <VSLOBXFL/>
    <VSREPNUM/>
    <VISITNUM>1</VISITNUM>
    <VISIT>SCREENING 1</VISIT>
    <EPOCH>SCREENING</EPOCH>
    <VSDTC>2012-10-30</VSDTC>
    <VSDY>-16</VSDY>
  </row>
  <row>
    <index>77</index>
    <STUDYID>CDISCPILOT01</STUDYID>
    <DOMAIN>VS</DOMAIN>
    <USUBJID>CDISC002</USUBJID>
    <VSSEQ>21</VSSEQ>
    <VSTESTCD>SYSBP</VSTESTCD>
    <VSTEST>Systolic Blood Pressure</VSTEST>
    <VSPOS>STANDING</VSPOS>
    <VSORRES>137</VSORRES>
    <VSORRESU>mmHg</VSORRESU>
    <VSSTRESC>137</VSSTRESC>
    <VSSTRESN>137.0</VSSTRESN>
    <VSSTRESU>mmHg</VSSTRESU>
    <VSSTAT/>
    <VSLOC/>
    <VSLOBXFL/>
    <VSREPNUM/>
    <VISITNUM>2</VISITNUM>
    <VISIT>SCREENING 2</VISIT>
    <EPOCH>SCREENING</EPOCH>
    <VSDTC>2012-11-14</VSDTC>
    <VSDY>-1</VSDY>
  </row>
  <row>
    <index>78</index>
    <STUDYID>CDISCPILOT01</STUDYID>
    <DOMAIN>VS</DOMAIN>
    <USUBJID>CDISC002</USUBJID>
    <VSSEQ>22</VSSEQ>
    <VSTESTCD>SYSBP</VSTESTCD>
    <VSTEST>Systolic Blood Pressure</VSTEST>
    <VSPOS>STANDING</VSPOS>
    <VSORRES>135</VSORRES>
    <VSORRESU>mmHg</VSORRESU>
    <VSSTRESC>135</VSSTRESC>
    <VSSTRESN>135.0</VSSTRESN>
    <VSSTRESU>mmHg</VSSTRESU>
    <VSSTAT/>
    <VSLOC/>
    <VSLOBXFL>Y</VSLOBXFL>
    <VSREPNUM/>
    <VISITNUM>3</VISITNUM>
    <VISIT>BASELINE</VISIT>
    <EPOCH>SCREENING</EPOCH>
    <VSDTC>2012-11-15</VSDTC>
    <VSDY>1</VSDY>
  </row>
  <row>
    <index>79</index>
    <STUDYID>CDISCPILOT01</STUDYID>
    <DOMAIN>VS</DOMAIN>
    <USUBJID>CDISC002</USUBJID>
    <VSSEQ>23</VSSEQ>
    <VSTESTCD>SYSBP</VSTESTCD>
    <VSTEST>Systolic Blood Pressure</VSTEST>
    <VSPOS>STANDING</VSPOS>
    <VSORRES>113</VSORRES>
    <VSORRESU>mmHg</VSORRESU>
    <VSSTRESC>113</VSSTRESC>
    <VSSTRESN>113.0</VSSTRESN>
    <VSSTRESU>mmHg</VSSTRESU>
    <VSSTAT/>
    <VSLOC/>
    <VSLOBXFL/>
    <VSREPNUM/>
    <VISITNUM>4</VISITNUM>
    <VISIT>WEEK 2</VISIT>
    <EPOCH>TREATMENT</EPOCH>
    <VSDTC>2012-11-28</VSDTC>
    <VSDY>14</VSDY>
  </row>
  <row>
    <index>80</index>
    <STUDYID>CDISCPILOT01</STUDYID>
    <DOMAIN>VS</DOMAIN>
    <USUBJID>CDISC002</USUBJID>
    <VSSEQ>24</VSSEQ>
    <VSTESTCD>SYSBP</VSTESTCD>
    <VSTEST>Systolic Blood Pressure</VSTEST>
    <VSPOS>STANDING</VSPOS>
    <VSORRES>115</VSORRES>
    <VSORRESU>mmHg</VSORRESU>
    <VSSTRESC>115</VSSTRESC>
    <VSSTRESN>115.0</VSSTRESN>
    <VSSTRESU>mmHg</VSSTRESU>
    <VSSTAT/>
    <VSLOC/>
    <VSLOBXFL/>
    <VSREPNUM/>
    <VISITNUM>5</VISITNUM>
    <VISIT>WEEK 4</VISIT>
    <EPOCH>TREATMENT</EPOCH>
    <VSDTC>2012-12-11</VSDTC>
    <VSDY>27</VSDY>
  </row>
  <row>
    <index>81</index>
    <STUDYID>CDISCPILOT01</STUDYID>
    <DOMAIN>VS</DOMAIN>
    <USUBJID>CDISC002</USUBJID>
    <VSSEQ>25</VSSEQ>
    <VSTESTCD>SYSBP</VSTESTCD>
    <VSTEST>Systolic Blood Pressure</VSTEST>
    <VSPOS>STANDING</VSPOS>
    <VSORRES>123</VSORRES>
    <VSORRESU>mmHg</VSORRESU>
    <VSSTRESC>123</VSSTRESC>
    <VSSTRESN>123.0</VSSTRESN>
    <VSSTRESU>mmHg</VSSTRESU>
    <VSSTAT/>
    <VSLOC/>
    <VSLOBXFL/>
    <VSREPNUM/>
    <VISITNUM>7</VISITNUM>
    <VISIT>WEEK 6</VISIT>
    <EPOCH>TREATMENT</EPOCH>
    <VSDTC>2012-12-25</VSDTC>
    <VSDY>41</VSDY>
  </row>
  <row>
    <index>82</index>
    <STUDYID>CDISCPILOT01</STUDYID>
    <DOMAIN>VS</DOMAIN>
    <USUBJID>CDISC002</USUBJID>
    <VSSEQ>26</VSSEQ>
    <VSTESTCD>SYSBP</VSTESTCD>
    <VSTEST>Systolic Blood Pressure</VSTEST>
    <VSPOS>SUPINE</VSPOS>
    <VSORRES>156</VSORRES>
    <VSORRESU>mmHg</VSORRESU>
    <VSSTRESC>156</VSSTRESC>
    <VSSTRESN>156.0</VSSTRESN>
    <VSSTRESU>mmHg</VSSTRESU>
    <VSSTAT/>
    <VSLOC/>
    <VSLOBXFL/>
    <VSREPNUM>1.0</VSREPNUM>
    <VISITNUM>8</VISITNUM>
    <VISIT>WEEK 8</VISIT>
    <EPOCH>TREATMENT</EPOCH>
    <VSDTC>2013-01-08</VSDTC>
    <VSDY>55</VSDY>
  </row>
  <row>
    <index>83</index>
    <STUDYID>CDISCPILOT01</STUDYID>
    <DOMAIN>VS</DOMAIN>
    <USUBJID>CDISC002</USUBJID>
    <VSSEQ>27</VSSEQ>
    <VSTESTCD>SYSBP</VSTESTCD>
    <VSTEST>Systolic Blood Pressure</VSTEST>
    <VSPOS>STANDING</VSPOS>
    <VSORRES>114</VSORRES>
    <VSORRESU>mmHg</VSORRESU>
    <VSSTRESC>114</VSSTRESC>
    <VSSTRESN>114.0</VSSTRESN>
    <VSSTRESU>mmHg</VSSTRESU>
    <VSSTAT/>
    <VSLOC/>
    <VSLOBXFL/>
    <VSREPNUM>2.0</VSREPNUM>
    <VISITNUM>8</VISITNUM>
    <VISIT>WEEK 8</VISIT>
    <EPOCH>TREATMENT</EPOCH>
    <VSDTC>2013-01-08</VSDTC>
    <VSDY>55</VSDY>
  </row>
  <row>
    <index>84</index>
    <STUDYID>CDISCPILOT01</STUDYID>
    <DOMAIN>VS</DOMAIN>
    <USUBJID>CDISC002</USUBJID>
    <VSSEQ>28</VSSEQ>
    <VSTESTCD>SYSBP</VSTESTCD>
    <VSTEST>Systolic Blood Pressure</VSTEST>
    <VSPOS>STANDING</VSPOS>
    <VSORRES>127</VSORRES>
    <VSORRESU>mmHg</VSORRESU>
    <VSSTRESC>127</VSSTRESC>
    <VSSTRESN>127.0</VSSTRESN>
    <VSSTRESU>mmHg</VSSTRESU>
    <VSSTAT/>
    <VSLOC/>
    <VSLOBXFL/>
    <VSREPNUM>3.0</VSREPNUM>
    <VISITNUM>8</VISITNUM>
    <VISIT>WEEK 8</VISIT>
    <EPOCH>TREATMENT</EPOCH>
    <VSDTC>2013-01-08</VSDTC>
    <VSDY>55</VSDY>
  </row>
  <row>
    <index>85</index>
    <STUDYID>CDISCPILOT01</STUDYID>
    <DOMAIN>VS</DOMAIN>
    <USUBJID>CDISC002</USUBJID>
    <VSSEQ>29</VSSEQ>
    <VSTESTCD>TEMP</VSTESTCD>
    <VSTEST>Temperature</VSTEST>
    <VSPOS/>
    <VSORRES>99.6</VSORRES>
    <VSORRESU>F</VSORRESU>
    <VSSTRESC>37.56</VSSTRESC>
    <VSSTRESN>37.56</VSSTRESN>
    <VSSTRESU>C</VSSTRESU>
    <VSSTAT/>
    <VSLOC>ORAL CAVITY</VSLOC>
    <VSLOBXFL/>
    <VSREPNUM/>
    <VISITNUM>1</VISITNUM>
    <VISIT>SCREENING 1</VISIT>
    <EPOCH>SCREENING</EPOCH>
    <VSDTC>2012-10-30</VSDTC>
    <VSDY>-16</VSDY>
  </row>
  <row>
    <index>86</index>
    <STUDYID>CDISCPILOT01</STUDYID>
    <DOMAIN>VS</DOMAIN>
    <USUBJID>CDISC002</USUBJID>
    <VSSEQ>30</VSSEQ>
    <VSTESTCD>TEMP</VSTESTCD>
    <VSTEST>Temperature</VSTEST>
    <VSPOS/>
    <VSORRES>98.7</VSORRES>
    <VSORRESU>F</VSORRESU>
    <VSSTRESC>37.06</VSSTRESC>
    <VSSTRESN>37.06</VSSTRESN>
    <VSSTRESU>C</VSSTRESU>
    <VSSTAT/>
    <VSLOC>ORAL CAVITY</VSLOC>
    <VSLOBXFL/>
    <VSREPNUM/>
    <VISITNUM>2</VISITNUM>
    <VISIT>SCREENING 2</VISIT>
    <EPOCH>SCREENING</EPOCH>
    <VSDTC>2012-11-14</VSDTC>
    <VSDY>-1</VSDY>
  </row>
  <row>
    <index>87</index>
    <STUDYID>CDISCPILOT01</STUDYID>
    <DOMAIN>VS</DOMAIN>
    <USUBJID>CDISC002</USUBJID>
    <VSSEQ>31</VSSEQ>
    <VSTESTCD>TEMP</VSTESTCD>
    <VSTEST>Temperature</VSTEST>
    <VSPOS/>
    <VSORRES>97.8</VSORRES>
    <VSORRESU>F</VSORRESU>
    <VSSTRESC>36.56</VSSTRESC>
    <VSSTRESN>36.56</VSSTRESN>
    <VSSTRESU>C</VSSTRESU>
    <VSSTAT/>
    <VSLOC>ORAL CAVITY</VSLOC>
    <VSLOBXFL>Y</VSLOBXFL>
    <VSREPNUM/>
    <VISITNUM>3</VISITNUM>
    <VISIT>BASELINE</VISIT>
    <EPOCH>SCREENING</EPOCH>
    <VSDTC>2012-11-15</VSDTC>
    <VSDY>1</VSDY>
  </row>
  <row>
    <index>88</index>
    <STUDYID>CDISCPILOT01</STUDYID>
    <DOMAIN>VS</DOMAIN>
    <USUBJID>CDISC002</USUBJID>
    <VSSEQ>32</VSSEQ>
    <VSTESTCD>TEMP</VSTESTCD>
    <VSTEST>Temperature</VSTEST>
    <VSPOS/>
    <VSORRES>97.0</VSORRES>
    <VSORRESU>F</VSORRESU>
    <VSSTRESC>36.11</VSSTRESC>
    <VSSTRESN>36.11</VSSTRESN>
    <VSSTRESU>C</VSSTRESU>
    <VSSTAT/>
    <VSLOC>ORAL CAVITY</VSLOC>
    <VSLOBXFL/>
    <VSREPNUM/>
    <VISITNUM>4</VISITNUM>
    <VISIT>WEEK 2</VISIT>
    <EPOCH>TREATMENT</EPOCH>
    <VSDTC>2012-11-28</VSDTC>
    <VSDY>14</VSDY>
  </row>
  <row>
    <index>89</index>
    <STUDYID>CDISCPILOT01</STUDYID>
    <DOMAIN>VS</DOMAIN>
    <USUBJID>CDISC002</USUBJID>
    <VSSEQ>33</VSSEQ>
    <VSTESTCD>TEMP</VSTESTCD>
    <VSTEST>Temperature</VSTEST>
    <VSPOS/>
    <VSORRES>97.8</VSORRES>
    <VSORRESU>F</VSORRESU>
    <VSSTRESC>36.56</VSSTRESC>
    <VSSTRESN>36.56</VSSTRESN>
    <VSSTRESU>C</VSSTRESU>
    <VSSTAT/>
    <VSLOC>ORAL CAVITY</VSLOC>
    <VSLOBXFL/>
    <VSREPNUM/>
    <VISITNUM>5</VISITNUM>
    <VISIT>WEEK 4</VISIT>
    <EPOCH>TREATMENT</EPOCH>
    <VSDTC>2012-12-11</VSDTC>
    <VSDY>27</VSDY>
  </row>
  <row>
    <index>90</index>
    <STUDYID>CDISCPILOT01</STUDYID>
    <DOMAIN>VS</DOMAIN>
    <USUBJID>CDISC002</USUBJID>
    <VSSEQ>34</VSSEQ>
    <VSTESTCD>TEMP</VSTESTCD>
    <VSTEST>Temperature</VSTEST>
    <VSPOS/>
    <VSORRES>96.2</VSORRES>
    <VSORRESU>F</VSORRESU>
    <VSSTRESC>35.67</VSSTRESC>
    <VSSTRESN>35.67</VSSTRESN>
    <VSSTRESU>C</VSSTRESU>
    <VSSTAT/>
    <VSLOC>ORAL CAVITY</VSLOC>
    <VSLOBXFL/>
    <VSREPNUM/>
    <VISITNUM>7</VISITNUM>
    <VISIT>WEEK 6</VISIT>
    <EPOCH>TREATMENT</EPOCH>
    <VSDTC>2012-12-25</VSDTC>
    <VSDY>41</VSDY>
  </row>
  <row>
    <index>91</index>
    <STUDYID>CDISCPILOT01</STUDYID>
    <DOMAIN>VS</DOMAIN>
    <USUBJID>CDISC002</USUBJID>
    <VSSEQ>35</VSSEQ>
    <VSTESTCD>TEMP</VSTESTCD>
    <VSTEST>Temperature</VSTEST>
    <VSPOS/>
    <VSORRES>97.2</VSORRES>
    <VSORRESU>F</VSORRESU>
    <VSSTRESC>36.22</VSSTRESC>
    <VSSTRESN>36.22</VSSTRESN>
    <VSSTRESU>C</VSSTRESU>
    <VSSTAT/>
    <VSLOC>ORAL CAVITY</VSLOC>
    <VSLOBXFL/>
    <VSREPNUM/>
    <VISITNUM>8</VISITNUM>
    <VISIT>WEEK 8</VISIT>
    <EPOCH>TREATMENT</EPOCH>
    <VSDTC>2013-01-08</VSDTC>
    <VSDY>55</VSDY>
  </row>
  <row>
    <index>92</index>
    <STUDYID>CDISCPILOT01</STUDYID>
    <DOMAIN>VS</DOMAIN>
    <USUBJID>CDISC002</USUBJID>
    <VSSEQ>36</VSSEQ>
    <VSTESTCD>WEIGHT</VSTESTCD>
    <VSTEST>Weight</VSTEST>
    <VSPOS/>
    <VSORRES>101.0</VSORRES>
    <VSORRESU>LB</VSORRESU>
    <VSSTRESC>45.81</VSSTRESC>
    <VSSTRESN>45.81</VSSTRESN>
    <VSSTRESU>kg</VSSTRESU>
    <VSSTAT/>
    <VSLOC/>
    <VSLOBXFL/>
    <VSREPNUM/>
    <VISITNUM>1</VISITNUM>
    <VISIT>SCREENING 1</VISIT>
    <EPOCH>SCREENING</EPOCH>
    <VSDTC>2012-10-30</VSDTC>
    <VSDY>-16</VSDY>
  </row>
  <row>
    <index>93</index>
    <STUDYID>CDISCPILOT01</STUDYID>
    <DOMAIN>VS</DOMAIN>
    <USUBJID>CDISC002</USUBJID>
    <VSSEQ>37</VSSEQ>
    <VSTESTCD>WEIGHT</VSTESTCD>
    <VSTEST>Weight</VSTEST>
    <VSPOS/>
    <VSORRES>100.0</VSORRES>
    <VSORRESU>LB</VSORRESU>
    <VSSTRESC>45.36</VSSTRESC>
    <VSSTRESN>45.36</VSSTRESN>
    <VSSTRESU>kg</VSSTRESU>
    <VSSTAT/>
    <VSLOC/>
    <VSLOBXFL>Y</VSLOBXFL>
    <VSREPNUM/>
    <VISITNUM>3</VISITNUM>
    <VISIT>BASELINE</VISIT>
    <EPOCH>SCREENING</EPOCH>
    <VSDTC>2012-11-15</VSDTC>
    <VSDY>1</VSDY>
  </row>
  <row>
    <index>94</index>
    <STUDYID>CDISCPILOT01</STUDYID>
    <DOMAIN>VS</DOMAIN>
    <USUBJID>CDISC002</USUBJID>
    <VSSEQ>38</VSSEQ>
    <VSTESTCD>WEIGHT</VSTESTCD>
    <VSTEST>Weight</VSTEST>
    <VSPOS/>
    <VSORRES>100.0</VSORRES>
    <VSORRESU>LB</VSORRESU>
    <VSSTRESC>45.36</VSSTRESC>
    <VSSTRESN>45.36</VSSTRESN>
    <VSSTRESU>kg</VSSTRESU>
    <VSSTAT/>
    <VSLOC/>
    <VSLOBXFL/>
    <VSREPNUM/>
    <VISITNUM>4</VISITNUM>
    <VISIT>WEEK 2</VISIT>
    <EPOCH>TREATMENT</EPOCH>
    <VSDTC>2012-11-28</VSDTC>
    <VSDY>14</VSDY>
  </row>
  <row>
    <index>95</index>
    <STUDYID>CDISCPILOT01</STUDYID>
    <DOMAIN>VS</DOMAIN>
    <USUBJID>CDISC002</USUBJID>
    <VSSEQ>39</VSSEQ>
    <VSTESTCD>WEIGHT</VSTESTCD>
    <VSTEST>Weight</VSTEST>
    <VSPOS/>
    <VSORRES>101.0</VSORRES>
    <VSORRESU>LB</VSORRESU>
    <VSSTRESC>45.81</VSSTRESC>
    <VSSTRESN>45.81</VSSTRESN>
    <VSSTRESU>kg</VSSTRESU>
    <VSSTAT/>
    <VSLOC/>
    <VSLOBXFL/>
    <VSREPNUM/>
    <VISITNUM>5</VISITNUM>
    <VISIT>WEEK 4</VISIT>
    <EPOCH>TREATMENT</EPOCH>
    <VSDTC>2012-12-11</VSDTC>
    <VSDY>27</VSDY>
  </row>
  <row>
    <index>96</index>
    <STUDYID>CDISCPILOT01</STUDYID>
    <DOMAIN>VS</DOMAIN>
    <USUBJID>CDISC002</USUBJID>
    <VSSEQ>40</VSSEQ>
    <VSTESTCD>WEIGHT</VSTESTCD>
    <VSTEST>Weight</VSTEST>
    <VSPOS/>
    <VSORRES>100.0</VSORRES>
    <VSORRESU>LB</VSORRESU>
    <VSSTRESC>45.36</VSSTRESC>
    <VSSTRESN>45.36</VSSTRESN>
    <VSSTRESU>kg</VSSTRESU>
    <VSSTAT/>
    <VSLOC/>
    <VSLOBXFL/>
    <VSREPNUM/>
    <VISITNUM>7</VISITNUM>
    <VISIT>WEEK 6</VISIT>
    <EPOCH>TREATMENT</EPOCH>
    <VSDTC>2012-12-25</VSDTC>
    <VSDY>41</VSDY>
  </row>
  <row>
    <index>97</index>
    <STUDYID>CDISCPILOT01</STUDYID>
    <DOMAIN>VS</DOMAIN>
    <USUBJID>CDISC002</USUBJID>
    <VSSEQ>41</VSSEQ>
    <VSTESTCD>WEIGHT</VSTESTCD>
    <VSTEST>Weight</VSTEST>
    <VSPOS/>
    <VSORRES>95.0</VSORRES>
    <VSORRESU>LB</VSORRESU>
    <VSSTRESC>43.09</VSSTRESC>
    <VSSTRESN>43.09</VSSTRESN>
    <VSSTRESU>kg</VSSTRESU>
    <VSSTAT/>
    <VSLOC/>
    <VSLOBXFL/>
    <VSREPNUM/>
    <VISITNUM>8</VISITNUM>
    <VISIT>WEEK 8</VISIT>
    <EPOCH>TREATMENT</EPOCH>
    <VSDTC>2013-01-08</VSDTC>
    <VSDY>55</VSDY>
  </row>
  <row>
    <index>98</index>
    <STUDYID>CDISCPILOT01</STUDYID>
    <DOMAIN>VS</DOMAIN>
    <USUBJID>CDISC003</USUBJID>
    <VSSEQ>1</VSSEQ>
    <VSTESTCD>DIABP</VSTESTCD>
    <VSTEST>Diastolic Blood Pressure</VSTEST>
    <VSPOS>SUPINE</VSPOS>
    <VSORRES>68</VSORRES>
    <VSORRESU>mmHg</VSORRESU>
    <VSSTRESC>68</VSSTRESC>
    <VSSTRESN>68.0</VSSTRESN>
    <VSSTRESU>mmHg</VSSTRESU>
    <VSSTAT/>
    <VSLOC/>
    <VSLOBXFL/>
    <VSREPNUM>1.0</VSREPNUM>
    <VISITNUM>1</VISITNUM>
    <VISIT>SCREENING 1</VISIT>
    <EPOCH>SCREENING</EPOCH>
    <VSDTC>2013-08-20</VSDTC>
    <VSDY>-9</VSDY>
  </row>
  <row>
    <index>99</index>
    <STUDYID>CDISCPILOT01</STUDYID>
    <DOMAIN>VS</DOMAIN>
    <USUBJID>CDISC003</USUBJID>
    <VSSEQ>2</VSSEQ>
    <VSTESTCD>DIABP</VSTESTCD>
    <VSTEST>Diastolic Blood Pressure</VSTEST>
    <VSPOS>STANDING</VSPOS>
    <VSORRES>79</VSORRES>
    <VSORRESU>mmHg</VSORRESU>
    <VSSTRESC>79</VSSTRESC>
    <VSSTRESN>79.0</VSSTRESN>
    <VSSTRESU>mmHg</VSSTRESU>
    <VSSTAT/>
    <VSLOC/>
    <VSLOBXFL/>
    <VSREPNUM>2.0</VSREPNUM>
    <VISITNUM>1</VISITNUM>
    <VISIT>SCREENING 1</VISIT>
    <EPOCH>SCREENING</EPOCH>
    <VSDTC>2013-08-20</VSDTC>
    <VSDY>-9</VSDY>
  </row>
  <row>
    <index>100</index>
    <STUDYID>CDISCPILOT01</STUDYID>
    <DOMAIN>VS</DOMAIN>
    <USUBJID>CDISC003</USUBJID>
    <VSSEQ>3</VSSEQ>
    <VSTESTCD>DIABP</VSTESTCD>
    <VSTEST>Diastolic Blood Pressure</VSTEST>
    <VSPOS>STANDING</VSPOS>
    <VSORRES>77</VSORRES>
    <VSORRESU>mmHg</VSORRESU>
    <VSSTRESC>77</VSSTRESC>
    <VSSTRESN>77.0</VSSTRESN>
    <VSSTRESU>mmHg</VSSTRESU>
    <VSSTAT/>
    <VSLOC/>
    <VSLOBXFL/>
    <VSREPNUM>3.0</VSREPNUM>
    <VISITNUM>1</VISITNUM>
    <VISIT>SCREENING 1</VISIT>
    <EPOCH>SCREENING</EPOCH>
    <VSDTC>2013-08-20</VSDTC>
    <VSDY>-9</VSDY>
  </row>
  <row>
    <index>101</index>
    <STUDYID>CDISCPILOT01</STUDYID>
    <DOMAIN>VS</DOMAIN>
    <USUBJID>CDISC003</USUBJID>
    <VSSEQ>4</VSSEQ>
    <VSTESTCD>DIABP</VSTESTCD>
    <VSTEST>Diastolic Blood Pressure</VSTEST>
    <VSPOS>SUPINE</VSPOS>
    <VSORRES>68</VSORRES>
    <VSORRESU>mmHg</VSORRESU>
    <VSSTRESC>68</VSSTRESC>
    <VSSTRESN>68.0</VSSTRESN>
    <VSSTRESU>mmHg</VSSTRESU>
    <VSSTAT/>
    <VSLOC/>
    <VSLOBXFL/>
    <VSREPNUM>1.0</VSREPNUM>
    <VISITNUM>2</VISITNUM>
    <VISIT>SCREENING 2</VISIT>
    <EPOCH>SCREENING</EPOCH>
    <VSDTC>2013-08-27</VSDTC>
    <VSDY>-2</VSDY>
  </row>
  <row>
    <index>102</index>
    <STUDYID>CDISCPILOT01</STUDYID>
    <DOMAIN>VS</DOMAIN>
    <USUBJID>CDISC003</USUBJID>
    <VSSEQ>5</VSSEQ>
    <VSTESTCD>DIABP</VSTESTCD>
    <VSTEST>Diastolic Blood Pressure</VSTEST>
    <VSPOS>STANDING</VSPOS>
    <VSORRES>75</VSORRES>
    <VSORRESU>mmHg</VSORRESU>
    <VSSTRESC>75</VSSTRESC>
    <VSSTRESN>75.0</VSSTRESN>
    <VSSTRESU>mmHg</VSSTRESU>
    <VSSTAT/>
    <VSLOC/>
    <VSLOBXFL/>
    <VSREPNUM>2.0</VSREPNUM>
    <VISITNUM>2</VISITNUM>
    <VISIT>SCREENING 2</VISIT>
    <EPOCH>SCREENING</EPOCH>
    <VSDTC>2013-08-27</VSDTC>
    <VSDY>-2</VSDY>
  </row>
  <row>
    <index>103</index>
    <STUDYID>CDISCPILOT01</STUDYID>
    <DOMAIN>VS</DOMAIN>
    <USUBJID>CDISC003</USUBJID>
    <VSSEQ>6</VSSEQ>
    <VSTESTCD>DIABP</VSTESTCD>
    <VSTEST>Diastolic Blood Pressure</VSTEST>
    <VSPOS>STANDING</VSPOS>
    <VSORRES>76</VSORRES>
    <VSORRESU>mmHg</VSORRESU>
    <VSSTRESC>76</VSSTRESC>
    <VSSTRESN>76.0</VSSTRESN>
    <VSSTRESU>mmHg</VSSTRESU>
    <VSSTAT/>
    <VSLOC/>
    <VSLOBXFL/>
    <VSREPNUM>3.0</VSREPNUM>
    <VISITNUM>2</VISITNUM>
    <VISIT>SCREENING 2</VISIT>
    <EPOCH>SCREENING</EPOCH>
    <VSDTC>2013-08-27</VSDTC>
    <VSDY>-2</VSDY>
  </row>
  <row>
    <index>104</index>
    <STUDYID>CDISCPILOT01</STUDYID>
    <DOMAIN>VS</DOMAIN>
    <USUBJID>CDISC003</USUBJID>
    <VSSEQ>7</VSSEQ>
    <VSTESTCD>DIABP</VSTESTCD>
    <VSTEST>Diastolic Blood Pressure</VSTEST>
    <VSPOS>SUPINE</VSPOS>
    <VSORRES>76</VSORRES>
    <VSORRESU>mmHg</VSORRESU>
    <VSSTRESC>76</VSSTRESC>
    <VSSTRESN>76.0</VSSTRESN>
    <VSSTRESU>mmHg</VSSTRESU>
    <VSSTAT/>
    <VSLOC/>
    <VSLOBXFL/>
    <VSREPNUM>1.0</VSREPNUM>
    <VISITNUM>3</VISITNUM>
    <VISIT>BASELINE</VISIT>
    <EPOCH>SCREENING</EPOCH>
    <VSDTC>2013-08-29</VSDTC>
    <VSDY>1</VSDY>
  </row>
  <row>
    <index>105</index>
    <STUDYID>CDISCPILOT01</STUDYID>
    <DOMAIN>VS</DOMAIN>
    <USUBJID>CDISC003</USUBJID>
    <VSSEQ>8</VSSEQ>
    <VSTESTCD>DIABP</VSTESTCD>
    <VSTEST>Diastolic Blood Pressure</VSTEST>
    <VSPOS>STANDING</VSPOS>
    <VSORRES>87</VSORRES>
    <VSORRESU>mmHg</VSORRESU>
    <VSSTRESC>87</VSSTRESC>
    <VSSTRESN>87.0</VSSTRESN>
    <VSSTRESU>mmHg</VSSTRESU>
    <VSSTAT/>
    <VSLOC/>
    <VSLOBXFL/>
    <VSREPNUM>2.0</VSREPNUM>
    <VISITNUM>3</VISITNUM>
    <VISIT>BASELINE</VISIT>
    <EPOCH>SCREENING</EPOCH>
    <VSDTC>2013-08-29</VSDTC>
    <VSDY>1</VSDY>
  </row>
  <row>
    <index>106</index>
    <STUDYID>CDISCPILOT01</STUDYID>
    <DOMAIN>VS</DOMAIN>
    <USUBJID>CDISC003</USUBJID>
    <VSSEQ>9</VSSEQ>
    <VSTESTCD>DIABP</VSTESTCD>
    <VSTEST>Diastolic Blood Pressure</VSTEST>
    <VSPOS>STANDING</VSPOS>
    <VSORRES>83</VSORRES>
    <VSORRESU>mmHg</VSORRESU>
    <VSSTRESC>83</VSSTRESC>
    <VSSTRESN>83.0</VSSTRESN>
    <VSSTRESU>mmHg</VSSTRESU>
    <VSSTAT/>
    <VSLOC/>
    <VSLOBXFL>Y</VSLOBXFL>
    <VSREPNUM>3.0</VSREPNUM>
    <VISITNUM>3</VISITNUM>
    <VISIT>BASELINE</VISIT>
    <EPOCH>SCREENING</EPOCH>
    <VSDTC>2013-08-29</VSDTC>
    <VSDY>1</VSDY>
  </row>
  <row>
    <index>107</index>
    <STUDYID>CDISCPILOT01</STUDYID>
    <DOMAIN>VS</DOMAIN>
    <USUBJID>CDISC003</USUBJID>
    <VSSEQ>10</VSSEQ>
    <VSTESTCD>DIABP</VSTESTCD>
    <VSTEST>Diastolic Blood Pressure</VSTEST>
    <VSPOS>SUPINE</VSPOS>
    <VSORRES>71</VSORRES>
    <VSORRESU>mmHg</VSORRESU>
    <VSSTRESC>71</VSSTRESC>
    <VSSTRESN>71.0</VSSTRESN>
    <VSSTRESU>mmHg</VSSTRESU>
    <VSSTAT/>
    <VSLOC/>
    <VSLOBXFL/>
    <VSREPNUM>1.0</VSREPNUM>
    <VISITNUM>4</VISITNUM>
    <VISIT>WEEK 2</VISIT>
    <EPOCH>TREATMENT</EPOCH>
    <VSDTC>2013-09-15</VSDTC>
    <VSDY>18</VSDY>
  </row>
  <row>
    <index>108</index>
    <STUDYID>CDISCPILOT01</STUDYID>
    <DOMAIN>VS</DOMAIN>
    <USUBJID>CDISC003</USUBJID>
    <VSSEQ>11</VSSEQ>
    <VSTESTCD>DIABP</VSTESTCD>
    <VSTEST>Diastolic Blood Pressure</VSTEST>
    <VSPOS>STANDING</VSPOS>
    <VSORRES>79</VSORRES>
    <VSORRESU>mmHg</VSORRESU>
    <VSSTRESC>79</VSSTRESC>
    <VSSTRESN>79.0</VSSTRESN>
    <VSSTRESU>mmHg</VSSTRESU>
    <VSSTAT/>
    <VSLOC/>
    <VSLOBXFL/>
    <VSREPNUM>2.0</VSREPNUM>
    <VISITNUM>4</VISITNUM>
    <VISIT>WEEK 2</VISIT>
    <EPOCH>TREATMENT</EPOCH>
    <VSDTC>2013-09-15</VSDTC>
    <VSDY>18</VSDY>
  </row>
  <row>
    <index>109</index>
    <STUDYID>CDISCPILOT01</STUDYID>
    <DOMAIN>VS</DOMAIN>
    <USUBJID>CDISC003</USUBJID>
    <VSSEQ>12</VSSEQ>
    <VSTESTCD>DIABP</VSTESTCD>
    <VSTEST>Diastolic Blood Pressure</VSTEST>
    <VSPOS>STANDING</VSPOS>
    <VSORRES>84</VSORRES>
    <VSORRESU>mmHg</VSORRESU>
    <VSSTRESC>84</VSSTRESC>
    <VSSTRESN>84.0</VSSTRESN>
    <VSSTRESU>mmHg</VSSTRESU>
    <VSSTAT/>
    <VSLOC/>
    <VSLOBXFL/>
    <VSREPNUM>3.0</VSREPNUM>
    <VISITNUM>4</VISITNUM>
    <VISIT>WEEK 2</VISIT>
    <EPOCH>TREATMENT</EPOCH>
    <VSDTC>2013-09-15</VSDTC>
    <VSDY>18</VSDY>
  </row>
  <row>
    <index>110</index>
    <STUDYID>CDISCPILOT01</STUDYID>
    <DOMAIN>VS</DOMAIN>
    <USUBJID>CDISC003</USUBJID>
    <VSSEQ>13</VSSEQ>
    <VSTESTCD>DIABP</VSTESTCD>
    <VSTEST>Diastolic Blood Pressure</VSTEST>
    <VSPOS>SUPINE</VSPOS>
    <VSORRES>76</VSORRES>
    <VSORRESU>mmHg</VSORRESU>
    <VSSTRESC>76</VSSTRESC>
    <VSSTRESN>76.0</VSSTRESN>
    <VSSTRESU>mmHg</VSSTRESU>
    <VSSTAT/>
    <VSLOC/>
    <VSLOBXFL/>
    <VSREPNUM>1.0</VSREPNUM>
    <VISITNUM>5</VISITNUM>
    <VISIT>WEEK 4</VISIT>
    <EPOCH>TREATMENT</EPOCH>
    <VSDTC>2013-09-24</VSDTC>
    <VSDY>27</VSDY>
  </row>
  <row>
    <index>111</index>
    <STUDYID>CDISCPILOT01</STUDYID>
    <DOMAIN>VS</DOMAIN>
    <USUBJID>CDISC003</USUBJID>
    <VSSEQ>14</VSSEQ>
    <VSTESTCD>DIABP</VSTESTCD>
    <VSTEST>Diastolic Blood Pressure</VSTEST>
    <VSPOS>STANDING</VSPOS>
    <VSORRES>80</VSORRES>
    <VSORRESU>mmHg</VSORRESU>
    <VSSTRESC>80</VSSTRESC>
    <VSSTRESN>80.0</VSSTRESN>
    <VSSTRESU>mmHg</VSSTRESU>
    <VSSTAT/>
    <VSLOC/>
    <VSLOBXFL/>
    <VSREPNUM>2.0</VSREPNUM>
    <VISITNUM>5</VISITNUM>
    <VISIT>WEEK 4</VISIT>
    <EPOCH>TREATMENT</EPOCH>
    <VSDTC>2013-09-24</VSDTC>
    <VSDY>27</VSDY>
  </row>
  <row>
    <index>112</index>
    <STUDYID>CDISCPILOT01</STUDYID>
    <DOMAIN>VS</DOMAIN>
    <USUBJID>CDISC003</USUBJID>
    <VSSEQ>15</VSSEQ>
    <VSTESTCD>DIABP</VSTESTCD>
    <VSTEST>Diastolic Blood Pressure</VSTEST>
    <VSPOS>STANDING</VSPOS>
    <VSORRES>80</VSORRES>
    <VSORRESU>mmHg</VSORRESU>
    <VSSTRESC>80</VSSTRESC>
    <VSSTRESN>80.0</VSSTRESN>
    <VSSTRESU>mmHg</VSSTRESU>
    <VSSTAT/>
    <VSLOC/>
    <VSLOBXFL/>
    <VSREPNUM>3.0</VSREPNUM>
    <VISITNUM>5</VISITNUM>
    <VISIT>WEEK 4</VISIT>
    <EPOCH>TREATMENT</EPOCH>
    <VSDTC>2013-09-24</VSDTC>
    <VSDY>27</VSDY>
  </row>
  <row>
    <index>113</index>
    <STUDYID>CDISCPILOT01</STUDYID>
    <DOMAIN>VS</DOMAIN>
    <USUBJID>CDISC003</USUBJID>
    <VSSEQ>16</VSSEQ>
    <VSTESTCD>DIABP</VSTESTCD>
    <VSTEST>Diastolic Blood Pressure</VSTEST>
    <VSPOS>SUPINE</VSPOS>
    <VSORRES>65</VSORRES>
    <VSORRESU>mmHg</VSORRESU>
    <VSSTRESC>65</VSSTRESC>
    <VSSTRESN>65.0</VSSTRESN>
    <VSSTRESU>mmHg</VSSTRESU>
    <VSSTAT/>
    <VSLOC/>
    <VSLOBXFL/>
    <VSREPNUM>1.0</VSREPNUM>
    <VISITNUM>7</VISITNUM>
    <VISIT>WEEK 6</VISIT>
    <EPOCH>TREATMENT</EPOCH>
    <VSDTC>2013-10-08</VSDTC>
    <VSDY>41</VSDY>
  </row>
  <row>
    <index>114</index>
    <STUDYID>CDISCPILOT01</STUDYID>
    <DOMAIN>VS</DOMAIN>
    <USUBJID>CDISC003</USUBJID>
    <VSSEQ>17</VSSEQ>
    <VSTESTCD>DIABP</VSTESTCD>
    <VSTEST>Diastolic Blood Pressure</VSTEST>
    <VSPOS>STANDING</VSPOS>
    <VSORRES>70</VSORRES>
    <VSORRESU>mmHg</VSORRESU>
    <VSSTRESC>70</VSSTRESC>
    <VSSTRESN>70.0</VSSTRESN>
    <VSSTRESU>mmHg</VSSTRESU>
    <VSSTAT/>
    <VSLOC/>
    <VSLOBXFL/>
    <VSREPNUM>2.0</VSREPNUM>
    <VISITNUM>7</VISITNUM>
    <VISIT>WEEK 6</VISIT>
    <EPOCH>TREATMENT</EPOCH>
    <VSDTC>2013-10-08</VSDTC>
    <VSDY>41</VSDY>
  </row>
  <row>
    <index>115</index>
    <STUDYID>CDISCPILOT01</STUDYID>
    <DOMAIN>VS</DOMAIN>
    <USUBJID>CDISC003</USUBJID>
    <VSSEQ>18</VSSEQ>
    <VSTESTCD>DIABP</VSTESTCD>
    <VSTEST>Diastolic Blood Pressure</VSTEST>
    <VSPOS>STANDING</VSPOS>
    <VSORRES>76</VSORRES>
    <VSORRESU>mmHg</VSORRESU>
    <VSSTRESC>76</VSSTRESC>
    <VSSTRESN>76.0</VSSTRESN>
    <VSSTRESU>mmHg</VSSTRESU>
    <VSSTAT/>
    <VSLOC/>
    <VSLOBXFL/>
    <VSREPNUM>3.0</VSREPNUM>
    <VISITNUM>7</VISITNUM>
    <VISIT>WEEK 6</VISIT>
    <EPOCH>TREATMENT</EPOCH>
    <VSDTC>2013-10-08</VSDTC>
    <VSDY>41</VSDY>
  </row>
  <row>
    <index>116</index>
    <STUDYID>CDISCPILOT01</STUDYID>
    <DOMAIN>VS</DOMAIN>
    <USUBJID>CDISC003</USUBJID>
    <VSSEQ>19</VSSEQ>
    <VSTESTCD>DIABP</VSTESTCD>
    <VSTEST>Diastolic Blood Pressure</VSTEST>
    <VSPOS>SUPINE</VSPOS>
    <VSORRES>77</VSORRES>
    <VSORRESU>mmHg</VSORRESU>
    <VSSTRESC>77</VSSTRESC>
    <VSSTRESN>77.0</VSSTRESN>
    <VSSTRESU>mmHg</VSSTRESU>
    <VSSTAT/>
    <VSLOC/>
    <VSLOBXFL/>
    <VSREPNUM>1.0</VSREPNUM>
    <VISITNUM>8</VISITNUM>
    <VISIT>WEEK 8</VISIT>
    <EPOCH>TREATMENT</EPOCH>
    <VSDTC>2013-10-22</VSDTC>
    <VSDY>55</VSDY>
  </row>
  <row>
    <index>117</index>
    <STUDYID>CDISCPILOT01</STUDYID>
    <DOMAIN>VS</DOMAIN>
    <USUBJID>CDISC003</USUBJID>
    <VSSEQ>20</VSSEQ>
    <VSTESTCD>DIABP</VSTESTCD>
    <VSTEST>Diastolic Blood Pressure</VSTEST>
    <VSPOS>STANDING</VSPOS>
    <VSORRES>84</VSORRES>
    <VSORRESU>mmHg</VSORRESU>
    <VSSTRESC>84</VSSTRESC>
    <VSSTRESN>84.0</VSSTRESN>
    <VSSTRESU>mmHg</VSSTRESU>
    <VSSTAT/>
    <VSLOC/>
    <VSLOBXFL/>
    <VSREPNUM>2.0</VSREPNUM>
    <VISITNUM>8</VISITNUM>
    <VISIT>WEEK 8</VISIT>
    <EPOCH>TREATMENT</EPOCH>
    <VSDTC>2013-10-22</VSDTC>
    <VSDY>55</VSDY>
  </row>
  <row>
    <index>118</index>
    <STUDYID>CDISCPILOT01</STUDYID>
    <DOMAIN>VS</DOMAIN>
    <USUBJID>CDISC003</USUBJID>
    <VSSEQ>21</VSSEQ>
    <VSTESTCD>DIABP</VSTESTCD>
    <VSTEST>Diastolic Blood Pressure</VSTEST>
    <VSPOS>STANDING</VSPOS>
    <VSORRES>91</VSORRES>
    <VSORRESU>mmHg</VSORRESU>
    <VSSTRESC>91</VSSTRESC>
    <VSSTRESN>91.0</VSSTRESN>
    <VSSTRESU>mmHg</VSSTRESU>
    <VSSTAT/>
    <VSLOC/>
    <VSLOBXFL/>
    <VSREPNUM>3.0</VSREPNUM>
    <VISITNUM>8</VISITNUM>
    <VISIT>WEEK 8</VISIT>
    <EPOCH>TREATMENT</EPOCH>
    <VSDTC>2013-10-22</VSDTC>
    <VSDY>55</VSDY>
  </row>
  <row>
    <index>119</index>
    <STUDYID>CDISCPILOT01</STUDYID>
    <DOMAIN>VS</DOMAIN>
    <USUBJID>CDISC003</USUBJID>
    <VSSEQ>22</VSSEQ>
    <VSTESTCD>DIABP</VSTESTCD>
    <VSTEST>Diastolic Blood Pressure</VSTEST>
    <VSPOS>SUPINE</VSPOS>
    <VSORRES>76</VSORRES>
    <VSORRESU>mmHg</VSORRESU>
    <VSSTRESC>76</VSSTRESC>
    <VSSTRESN>76.0</VSSTRESN>
    <VSSTRESU>mmHg</VSSTRESU>
    <VSSTAT/>
    <VSLOC/>
    <VSLOBXFL/>
    <VSREPNUM>1.0</VSREPNUM>
    <VISITNUM>9</VISITNUM>
    <VISIT>WEEK 12</VISIT>
    <EPOCH>TREATMENT</EPOCH>
    <VSDTC>2013-11-05</VSDTC>
    <VSDY>69</VSDY>
  </row>
  <row>
    <index>120</index>
    <STUDYID>CDISCPILOT01</STUDYID>
    <DOMAIN>VS</DOMAIN>
    <USUBJID>CDISC003</USUBJID>
    <VSSEQ>23</VSSEQ>
    <VSTESTCD>DIABP</VSTESTCD>
    <VSTEST>Diastolic Blood Pressure</VSTEST>
    <VSPOS>STANDING</VSPOS>
    <VSORRES>81</VSORRES>
    <VSORRESU>mmHg</VSORRESU>
    <VSSTRESC>81</VSSTRESC>
    <VSSTRESN>81.0</VSSTRESN>
    <VSSTRESU>mmHg</VSSTRESU>
    <VSSTAT/>
    <VSLOC/>
    <VSLOBXFL/>
    <VSREPNUM>2.0</VSREPNUM>
    <VISITNUM>9</VISITNUM>
    <VISIT>WEEK 12</VISIT>
    <EPOCH>TREATMENT</EPOCH>
    <VSDTC>2013-11-05</VSDTC>
    <VSDY>69</VSDY>
  </row>
  <row>
    <index>121</index>
    <STUDYID>CDISCPILOT01</STUDYID>
    <DOMAIN>VS</DOMAIN>
    <USUBJID>CDISC003</USUBJID>
    <VSSEQ>24</VSSEQ>
    <VSTESTCD>DIABP</VSTESTCD>
    <VSTEST>Diastolic Blood Pressure</VSTEST>
    <VSPOS>STANDING</VSPOS>
    <VSORRES>81</VSORRES>
    <VSORRESU>mmHg</VSORRESU>
    <VSSTRESC>81</VSSTRESC>
    <VSSTRESN>81.0</VSSTRESN>
    <VSSTRESU>mmHg</VSSTRESU>
    <VSSTAT/>
    <VSLOC/>
    <VSLOBXFL/>
    <VSREPNUM>3.0</VSREPNUM>
    <VISITNUM>9</VISITNUM>
    <VISIT>WEEK 12</VISIT>
    <EPOCH>TREATMENT</EPOCH>
    <VSDTC>2013-11-05</VSDTC>
    <VSDY>69</VSDY>
  </row>
  <row>
    <index>122</index>
    <STUDYID>CDISCPILOT01</STUDYID>
    <DOMAIN>VS</DOMAIN>
    <USUBJID>CDISC003</USUBJID>
    <VSSEQ>25</VSSEQ>
    <VSTESTCD>DIABP</VSTESTCD>
    <VSTEST>Diastolic Blood Pressure</VSTEST>
    <VSPOS>SUPINE</VSPOS>
    <VSORRES>75</VSORRES>
    <VSORRESU>mmHg</VSORRESU>
    <VSSTRESC>75</VSSTRESC>
    <VSSTRESN>75.0</VSSTRESN>
    <VSSTRESU>mmHg</VSSTRESU>
    <VSSTAT/>
    <VSLOC/>
    <VSLOBXFL/>
    <VSREPNUM>1.0</VSREPNUM>
    <VISITNUM>201</VISITNUM>
    <VISIT>EARLY DISCONTINUATION RETRIEVAL</VISIT>
    <EPOCH>TREATMENT</EPOCH>
    <VSDTC>2014-02-13</VSDTC>
    <VSDY>169</VSDY>
  </row>
  <row>
    <index>123</index>
    <STUDYID>CDISCPILOT01</STUDYID>
    <DOMAIN>VS</DOMAIN>
    <USUBJID>CDISC003</USUBJID>
    <VSSEQ>26</VSSEQ>
    <VSTESTCD>DIABP</VSTESTCD>
    <VSTEST>Diastolic Blood Pressure</VSTEST>
    <VSPOS>STANDING</VSPOS>
    <VSORRES>83</VSORRES>
    <VSORRESU>mmHg</VSORRESU>
    <VSSTRESC>83</VSSTRESC>
    <VSSTRESN>83.0</VSSTRESN>
    <VSSTRESU>mmHg</VSSTRESU>
    <VSSTAT/>
    <VSLOC/>
    <VSLOBXFL/>
    <VSREPNUM>2.0</VSREPNUM>
    <VISITNUM>201</VISITNUM>
    <VISIT>EARLY DISCONTINUATION RETRIEVAL</VISIT>
    <EPOCH>TREATMENT</EPOCH>
    <VSDTC>2014-02-13</VSDTC>
    <VSDY>169</VSDY>
  </row>
  <row>
    <index>124</index>
    <STUDYID>CDISCPILOT01</STUDYID>
    <DOMAIN>VS</DOMAIN>
    <USUBJID>CDISC003</USUBJID>
    <VSSEQ>27</VSSEQ>
    <VSTESTCD>DIABP</VSTESTCD>
    <VSTEST>Diastolic Blood Pressure</VSTEST>
    <VSPOS>STANDING</VSPOS>
    <VSORRES>80</VSORRES>
    <VSORRESU>mmHg</VSORRESU>
    <VSSTRESC>80</VSSTRESC>
    <VSSTRESN>80.0</VSSTRESN>
    <VSSTRESU>mmHg</VSSTRESU>
    <VSSTAT/>
    <VSLOC/>
    <VSLOBXFL/>
    <VSREPNUM>3.0</VSREPNUM>
    <VISITNUM>201</VISITNUM>
    <VISIT>EARLY DISCONTINUATION RETRIEVAL</VISIT>
    <EPOCH>TREATMENT</EPOCH>
    <VSDTC>2014-02-13</VSDTC>
    <VSDY>169</VSDY>
  </row>
  <row>
    <index>125</index>
    <STUDYID>CDISCPILOT01</STUDYID>
    <DOMAIN>VS</DOMAIN>
    <USUBJID>CDISC003</USUBJID>
    <VSSEQ>28</VSSEQ>
    <VSTESTCD>HEIGHT</VSTESTCD>
    <VSTEST>Height</VSTEST>
    <VSPOS/>
    <VSORRES>70.0</VSORRES>
    <VSORRESU>in</VSORRESU>
    <VSSTRESC>177.8</VSSTRESC>
    <VSSTRESN>177.8</VSSTRESN>
    <VSSTRESU>cm</VSSTRESU>
    <VSSTAT/>
    <VSLOC/>
    <VSLOBXFL/>
    <VSREPNUM/>
    <VISITNUM>1</VISITNUM>
    <VISIT>SCREENING 1</VISIT>
    <EPOCH>SCREENING</EPOCH>
    <VSDTC>2013-08-20</VSDTC>
    <VSDY>-9</VSDY>
  </row>
  <row>
    <index>126</index>
    <STUDYID>CDISCPILOT01</STUDYID>
    <DOMAIN>VS</DOMAIN>
    <USUBJID>CDISC003</USUBJID>
    <VSSEQ>29</VSSEQ>
    <VSTESTCD>PULSE</VSTESTCD>
    <VSTEST>Pulse Rate</VSTEST>
    <VSPOS>SUPINE</VSPOS>
    <VSORRES>58</VSORRES>
    <VSORRESU>beats/min</VSORRESU>
    <VSSTRESC>58</VSSTRESC>
    <VSSTRESN>58.0</VSSTRESN>
    <VSSTRESU>beats/min</VSSTRESU>
    <VSSTAT/>
    <VSLOC/>
    <VSLOBXFL/>
    <VSREPNUM>1.0</VSREPNUM>
    <VISITNUM>1</VISITNUM>
    <VISIT>SCREENING 1</VISIT>
    <EPOCH>SCREENING</EPOCH>
    <VSDTC>2013-08-20</VSDTC>
    <VSDY>-9</VSDY>
  </row>
  <row>
    <index>127</index>
    <STUDYID>CDISCPILOT01</STUDYID>
    <DOMAIN>VS</DOMAIN>
    <USUBJID>CDISC003</USUBJID>
    <VSSEQ>30</VSSEQ>
    <VSTESTCD>PULSE</VSTESTCD>
    <VSTEST>Pulse Rate</VSTEST>
    <VSPOS>STANDING</VSPOS>
    <VSORRES>68</VSORRES>
    <VSORRESU>beats/min</VSORRESU>
    <VSSTRESC>68</VSSTRESC>
    <VSSTRESN>68.0</VSSTRESN>
    <VSSTRESU>beats/min</VSSTRESU>
    <VSSTAT/>
    <VSLOC/>
    <VSLOBXFL/>
    <VSREPNUM>2.0</VSREPNUM>
    <VISITNUM>1</VISITNUM>
    <VISIT>SCREENING 1</VISIT>
    <EPOCH>SCREENING</EPOCH>
    <VSDTC>2013-08-20</VSDTC>
    <VSDY>-9</VSDY>
  </row>
  <row>
    <index>128</index>
    <STUDYID>CDISCPILOT01</STUDYID>
    <DOMAIN>VS</DOMAIN>
    <USUBJID>CDISC003</USUBJID>
    <VSSEQ>31</VSSEQ>
    <VSTESTCD>PULSE</VSTESTCD>
    <VSTEST>Pulse Rate</VSTEST>
    <VSPOS>STANDING</VSPOS>
    <VSORRES>64</VSORRES>
    <VSORRESU>beats/min</VSORRESU>
    <VSSTRESC>64</VSSTRESC>
    <VSSTRESN>64.0</VSSTRESN>
    <VSSTRESU>beats/min</VSSTRESU>
    <VSSTAT/>
    <VSLOC/>
    <VSLOBXFL/>
    <VSREPNUM>3.0</VSREPNUM>
    <VISITNUM>1</VISITNUM>
    <VISIT>SCREENING 1</VISIT>
    <EPOCH>SCREENING</EPOCH>
    <VSDTC>2013-08-20</VSDTC>
    <VSDY>-9</VSDY>
  </row>
  <row>
    <index>129</index>
    <STUDYID>CDISCPILOT01</STUDYID>
    <DOMAIN>VS</DOMAIN>
    <USUBJID>CDISC003</USUBJID>
    <VSSEQ>32</VSSEQ>
    <VSTESTCD>PULSE</VSTESTCD>
    <VSTEST>Pulse Rate</VSTEST>
    <VSPOS>SUPINE</VSPOS>
    <VSORRES>59</VSORRES>
    <VSORRESU>beats/min</VSORRESU>
    <VSSTRESC>59</VSSTRESC>
    <VSSTRESN>59.0</VSSTRESN>
    <VSSTRESU>beats/min</VSSTRESU>
    <VSSTAT/>
    <VSLOC/>
    <VSLOBXFL/>
    <VSREPNUM>1.0</VSREPNUM>
    <VISITNUM>2</VISITNUM>
    <VISIT>SCREENING 2</VISIT>
    <EPOCH>SCREENING</EPOCH>
    <VSDTC>2013-08-27</VSDTC>
    <VSDY>-2</VSDY>
  </row>
  <row>
    <index>130</index>
    <STUDYID>CDISCPILOT01</STUDYID>
    <DOMAIN>VS</DOMAIN>
    <USUBJID>CDISC003</USUBJID>
    <VSSEQ>33</VSSEQ>
    <VSTESTCD>PULSE</VSTESTCD>
    <VSTEST>Pulse Rate</VSTEST>
    <VSPOS>STANDING</VSPOS>
    <VSORRES>65</VSORRES>
    <VSORRESU>beats/min</VSORRESU>
    <VSSTRESC>65</VSSTRESC>
    <VSSTRESN>65.0</VSSTRESN>
    <VSSTRESU>beats/min</VSSTRESU>
    <VSSTAT/>
    <VSLOC/>
    <VSLOBXFL/>
    <VSREPNUM>2.0</VSREPNUM>
    <VISITNUM>2</VISITNUM>
    <VISIT>SCREENING 2</VISIT>
    <EPOCH>SCREENING</EPOCH>
    <VSDTC>2013-08-27</VSDTC>
    <VSDY>-2</VSDY>
  </row>
  <row>
    <index>131</index>
    <STUDYID>CDISCPILOT01</STUDYID>
    <DOMAIN>VS</DOMAIN>
    <USUBJID>CDISC003</USUBJID>
    <VSSEQ>34</VSSEQ>
    <VSTESTCD>PULSE</VSTESTCD>
    <VSTEST>Pulse Rate</VSTEST>
    <VSPOS>STANDING</VSPOS>
    <VSORRES>71</VSORRES>
    <VSORRESU>beats/min</VSORRESU>
    <VSSTRESC>71</VSSTRESC>
    <VSSTRESN>71.0</VSSTRESN>
    <VSSTRESU>beats/min</VSSTRESU>
    <VSSTAT/>
    <VSLOC/>
    <VSLOBXFL/>
    <VSREPNUM>3.0</VSREPNUM>
    <VISITNUM>2</VISITNUM>
    <VISIT>SCREENING 2</VISIT>
    <EPOCH>SCREENING</EPOCH>
    <VSDTC>2013-08-27</VSDTC>
    <VSDY>-2</VSDY>
  </row>
  <row>
    <index>132</index>
    <STUDYID>CDISCPILOT01</STUDYID>
    <DOMAIN>VS</DOMAIN>
    <USUBJID>CDISC003</USUBJID>
    <VSSEQ>35</VSSEQ>
    <VSTESTCD>PULSE</VSTESTCD>
    <VSTEST>Pulse Rate</VSTEST>
    <VSPOS>SUPINE</VSPOS>
    <VSORRES>54</VSORRES>
    <VSORRESU>beats/min</VSORRESU>
    <VSSTRESC>54</VSSTRESC>
    <VSSTRESN>54.0</VSSTRESN>
    <VSSTRESU>beats/min</VSSTRESU>
    <VSSTAT/>
    <VSLOC/>
    <VSLOBXFL/>
    <VSREPNUM>1.0</VSREPNUM>
    <VISITNUM>3</VISITNUM>
    <VISIT>BASELINE</VISIT>
    <EPOCH>SCREENING</EPOCH>
    <VSDTC>2013-08-29</VSDTC>
    <VSDY>1</VSDY>
  </row>
  <row>
    <index>133</index>
    <STUDYID>CDISCPILOT01</STUDYID>
    <DOMAIN>VS</DOMAIN>
    <USUBJID>CDISC003</USUBJID>
    <VSSEQ>36</VSSEQ>
    <VSTESTCD>PULSE</VSTESTCD>
    <VSTEST>Pulse Rate</VSTEST>
    <VSPOS>STANDING</VSPOS>
    <VSORRES>62</VSORRES>
    <VSORRESU>beats/min</VSORRESU>
    <VSSTRESC>62</VSSTRESC>
    <VSSTRESN>62.0</VSSTRESN>
    <VSSTRESU>beats/min</VSSTRESU>
    <VSSTAT/>
    <VSLOC/>
    <VSLOBXFL/>
    <VSREPNUM>2.0</VSREPNUM>
    <VISITNUM>3</VISITNUM>
    <VISIT>BASELINE</VISIT>
    <EPOCH>SCREENING</EPOCH>
    <VSDTC>2013-08-29</VSDTC>
    <VSDY>1</VSDY>
  </row>
  <row>
    <index>134</index>
    <STUDYID>CDISCPILOT01</STUDYID>
    <DOMAIN>VS</DOMAIN>
    <USUBJID>CDISC003</USUBJID>
    <VSSEQ>37</VSSEQ>
    <VSTESTCD>PULSE</VSTESTCD>
    <VSTEST>Pulse Rate</VSTEST>
    <VSPOS>STANDING</VSPOS>
    <VSORRES>61</VSORRES>
    <VSORRESU>beats/min</VSORRESU>
    <VSSTRESC>61</VSSTRESC>
    <VSSTRESN>61.0</VSSTRESN>
    <VSSTRESU>beats/min</VSSTRESU>
    <VSSTAT/>
    <VSLOC/>
    <VSLOBXFL>Y</VSLOBXFL>
    <VSREPNUM>3.0</VSREPNUM>
    <VISITNUM>3</VISITNUM>
    <VISIT>BASELINE</VISIT>
    <EPOCH>SCREENING</EPOCH>
    <VSDTC>2013-08-29</VSDTC>
    <VSDY>1</VSDY>
  </row>
  <row>
    <index>135</index>
    <STUDYID>CDISCPILOT01</STUDYID>
    <DOMAIN>VS</DOMAIN>
    <USUBJID>CDISC003</USUBJID>
    <VSSEQ>38</VSSEQ>
    <VSTESTCD>PULSE</VSTESTCD>
    <VSTEST>Pulse Rate</VSTEST>
    <VSPOS>SUPINE</VSPOS>
    <VSORRES>72</VSORRES>
    <VSORRESU>beats/min</VSORRESU>
    <VSSTRESC>72</VSSTRESC>
    <VSSTRESN>72.0</VSSTRESN>
    <VSSTRESU>beats/min</VSSTRESU>
    <VSSTAT/>
    <VSLOC/>
    <VSLOBXFL/>
    <VSREPNUM>1.0</VSREPNUM>
    <VISITNUM>4</VISITNUM>
    <VISIT>WEEK 2</VISIT>
    <EPOCH>TREATMENT</EPOCH>
    <VSDTC>2013-09-15</VSDTC>
    <VSDY>18</VSDY>
  </row>
  <row>
    <index>136</index>
    <STUDYID>CDISCPILOT01</STUDYID>
    <DOMAIN>VS</DOMAIN>
    <USUBJID>CDISC003</USUBJID>
    <VSSEQ>39</VSSEQ>
    <VSTESTCD>PULSE</VSTESTCD>
    <VSTEST>Pulse Rate</VSTEST>
    <VSPOS>STANDING</VSPOS>
    <VSORRES>80</VSORRES>
    <VSORRESU>beats/min</VSORRESU>
    <VSSTRESC>80</VSSTRESC>
    <VSSTRESN>80.0</VSSTRESN>
    <VSSTRESU>beats/min</VSSTRESU>
    <VSSTAT/>
    <VSLOC/>
    <VSLOBXFL/>
    <VSREPNUM>2.0</VSREPNUM>
    <VISITNUM>4</VISITNUM>
    <VISIT>WEEK 2</VISIT>
    <EPOCH>TREATMENT</EPOCH>
    <VSDTC>2013-09-15</VSDTC>
    <VSDY>18</VSDY>
  </row>
  <row>
    <index>137</index>
    <STUDYID>CDISCPILOT01</STUDYID>
    <DOMAIN>VS</DOMAIN>
    <USUBJID>CDISC003</USUBJID>
    <VSSEQ>40</VSSEQ>
    <VSTESTCD>PULSE</VSTESTCD>
    <VSTEST>Pulse Rate</VSTEST>
    <VSPOS>STANDING</VSPOS>
    <VSORRES>82</VSORRES>
    <VSORRESU>beats/min</VSORRESU>
    <VSSTRESC>82</VSSTRESC>
    <VSSTRESN>82.0</VSSTRESN>
    <VSSTRESU>beats/min</VSSTRESU>
    <VSSTAT/>
    <VSLOC/>
    <VSLOBXFL/>
    <VSREPNUM>3.0</VSREPNUM>
    <VISITNUM>4</VISITNUM>
    <VISIT>WEEK 2</VISIT>
    <EPOCH>TREATMENT</EPOCH>
    <VSDTC>2013-09-15</VSDTC>
    <VSDY>18</VSDY>
  </row>
  <row>
    <index>138</index>
    <STUDYID>CDISCPILOT01</STUDYID>
    <DOMAIN>VS</DOMAIN>
    <USUBJID>CDISC003</USUBJID>
    <VSSEQ>41</VSSEQ>
    <VSTESTCD>PULSE</VSTESTCD>
    <VSTEST>Pulse Rate</VSTEST>
    <VSPOS>SUPINE</VSPOS>
    <VSORRES>52</VSORRES>
    <VSORRESU>beats/min</VSORRESU>
    <VSSTRESC>52</VSSTRESC>
    <VSSTRESN>52.0</VSSTRESN>
    <VSSTRESU>beats/min</VSSTRESU>
    <VSSTAT/>
    <VSLOC/>
    <VSLOBXFL/>
    <VSREPNUM>1.0</VSREPNUM>
    <VISITNUM>5</VISITNUM>
    <VISIT>WEEK 4</VISIT>
    <EPOCH>TREATMENT</EPOCH>
    <VSDTC>2013-09-24</VSDTC>
    <VSDY>27</VSDY>
  </row>
  <row>
    <index>139</index>
    <STUDYID>CDISCPILOT01</STUDYID>
    <DOMAIN>VS</DOMAIN>
    <USUBJID>CDISC003</USUBJID>
    <VSSEQ>42</VSSEQ>
    <VSTESTCD>PULSE</VSTESTCD>
    <VSTEST>Pulse Rate</VSTEST>
    <VSPOS>STANDING</VSPOS>
    <VSORRES>62</VSORRES>
    <VSORRESU>beats/min</VSORRESU>
    <VSSTRESC>62</VSSTRESC>
    <VSSTRESN>62.0</VSSTRESN>
    <VSSTRESU>beats/min</VSSTRESU>
    <VSSTAT/>
    <VSLOC/>
    <VSLOBXFL/>
    <VSREPNUM>2.0</VSREPNUM>
    <VISITNUM>5</VISITNUM>
    <VISIT>WEEK 4</VISIT>
    <EPOCH>TREATMENT</EPOCH>
    <VSDTC>2013-09-24</VSDTC>
    <VSDY>27</VSDY>
  </row>
  <row>
    <index>140</index>
    <STUDYID>CDISCPILOT01</STUDYID>
    <DOMAIN>VS</DOMAIN>
    <USUBJID>CDISC003</USUBJID>
    <VSSEQ>43</VSSEQ>
    <VSTESTCD>PULSE</VSTESTCD>
    <VSTEST>Pulse Rate</VSTEST>
    <VSPOS>STANDING</VSPOS>
    <VSORRES>66</VSORRES>
    <VSORRESU>beats/min</VSORRESU>
    <VSSTRESC>66</VSSTRESC>
    <VSSTRESN>66.0</VSSTRESN>
    <VSSTRESU>beats/min</VSSTRESU>
    <VSSTAT/>
    <VSLOC/>
    <VSLOBXFL/>
    <VSREPNUM>3.0</VSREPNUM>
    <VISITNUM>5</VISITNUM>
    <VISIT>WEEK 4</VISIT>
    <EPOCH>TREATMENT</EPOCH>
    <VSDTC>2013-09-24</VSDTC>
    <VSDY>27</VSDY>
  </row>
  <row>
    <index>141</index>
    <STUDYID>CDISCPILOT01</STUDYID>
    <DOMAIN>VS</DOMAIN>
    <USUBJID>CDISC003</USUBJID>
    <VSSEQ>44</VSSEQ>
    <VSTESTCD>PULSE</VSTESTCD>
    <VSTEST>Pulse Rate</VSTEST>
    <VSPOS>SUPINE</VSPOS>
    <VSORRES>79</VSORRES>
    <VSORRESU>beats/min</VSORRESU>
    <VSSTRESC>79</VSSTRESC>
    <VSSTRESN>79.0</VSSTRESN>
    <VSSTRESU>beats/min</VSSTRESU>
    <VSSTAT/>
    <VSLOC/>
    <VSLOBXFL/>
    <VSREPNUM>1.0</VSREPNUM>
    <VISITNUM>7</VISITNUM>
    <VISIT>WEEK 6</VISIT>
    <EPOCH>TREATMENT</EPOCH>
    <VSDTC>2013-10-08</VSDTC>
    <VSDY>41</VSDY>
  </row>
  <row>
    <index>142</index>
    <STUDYID>CDISCPILOT01</STUDYID>
    <DOMAIN>VS</DOMAIN>
    <USUBJID>CDISC003</USUBJID>
    <VSSEQ>45</VSSEQ>
    <VSTESTCD>PULSE</VSTESTCD>
    <VSTEST>Pulse Rate</VSTEST>
    <VSPOS>STANDING</VSPOS>
    <VSORRES>91</VSORRES>
    <VSORRESU>beats/min</VSORRESU>
    <VSSTRESC>91</VSSTRESC>
    <VSSTRESN>91.0</VSSTRESN>
    <VSSTRESU>beats/min</VSSTRESU>
    <VSSTAT/>
    <VSLOC/>
    <VSLOBXFL/>
    <VSREPNUM>2.0</VSREPNUM>
    <VISITNUM>7</VISITNUM>
    <VISIT>WEEK 6</VISIT>
    <EPOCH>TREATMENT</EPOCH>
    <VSDTC>2013-10-08</VSDTC>
    <VSDY>41</VSDY>
  </row>
  <row>
    <index>143</index>
    <STUDYID>CDISCPILOT01</STUDYID>
    <DOMAIN>VS</DOMAIN>
    <USUBJID>CDISC003</USUBJID>
    <VSSEQ>46</VSSEQ>
    <VSTESTCD>PULSE</VSTESTCD>
    <VSTEST>Pulse Rate</VSTEST>
    <VSPOS>STANDING</VSPOS>
    <VSORRES>86</VSORRES>
    <VSORRESU>beats/min</VSORRESU>
    <VSSTRESC>86</VSSTRESC>
    <VSSTRESN>86.0</VSSTRESN>
    <VSSTRESU>beats/min</VSSTRESU>
    <VSSTAT/>
    <VSLOC/>
    <VSLOBXFL/>
    <VSREPNUM>3.0</VSREPNUM>
    <VISITNUM>7</VISITNUM>
    <VISIT>WEEK 6</VISIT>
    <EPOCH>TREATMENT</EPOCH>
    <VSDTC>2013-10-08</VSDTC>
    <VSDY>41</VSDY>
  </row>
  <row>
    <index>144</index>
    <STUDYID>CDISCPILOT01</STUDYID>
    <DOMAIN>VS</DOMAIN>
    <USUBJID>CDISC003</USUBJID>
    <VSSEQ>47</VSSEQ>
    <VSTESTCD>PULSE</VSTESTCD>
    <VSTEST>Pulse Rate</VSTEST>
    <VSPOS>SUPINE</VSPOS>
    <VSORRES>62</VSORRES>
    <VSORRESU>beats/min</VSORRESU>
    <VSSTRESC>62</VSSTRESC>
    <VSSTRESN>62.0</VSSTRESN>
    <VSSTRESU>beats/min</VSSTRESU>
    <VSSTAT/>
    <VSLOC/>
    <VSLOBXFL/>
    <VSREPNUM>1.0</VSREPNUM>
    <VISITNUM>8</VISITNUM>
    <VISIT>WEEK 8</VISIT>
    <EPOCH>TREATMENT</EPOCH>
    <VSDTC>2013-10-22</VSDTC>
    <VSDY>55</VSDY>
  </row>
  <row>
    <index>145</index>
    <STUDYID>CDISCPILOT01</STUDYID>
    <DOMAIN>VS</DOMAIN>
    <USUBJID>CDISC003</USUBJID>
    <VSSEQ>48</VSSEQ>
    <VSTESTCD>PULSE</VSTESTCD>
    <VSTEST>Pulse Rate</VSTEST>
    <VSPOS>STANDING</VSPOS>
    <VSORRES>76</VSORRES>
    <VSORRESU>beats/min</VSORRESU>
    <VSSTRESC>76</VSSTRESC>
    <VSSTRESN>76.0</VSSTRESN>
    <VSSTRESU>beats/min</VSSTRESU>
    <VSSTAT/>
    <VSLOC/>
    <VSLOBXFL/>
    <VSREPNUM>2.0</VSREPNUM>
    <VISITNUM>8</VISITNUM>
    <VISIT>WEEK 8</VISIT>
    <EPOCH>TREATMENT</EPOCH>
    <VSDTC>2013-10-22</VSDTC>
    <VSDY>55</VSDY>
  </row>
  <row>
    <index>146</index>
    <STUDYID>CDISCPILOT01</STUDYID>
    <DOMAIN>VS</DOMAIN>
    <USUBJID>CDISC003</USUBJID>
    <VSSEQ>49</VSSEQ>
    <VSTESTCD>PULSE</VSTESTCD>
    <VSTEST>Pulse Rate</VSTEST>
    <VSPOS>STANDING</VSPOS>
    <VSORRES>77</VSORRES>
    <VSORRESU>beats/min</VSORRESU>
    <VSSTRESC>77</VSSTRESC>
    <VSSTRESN>77.0</VSSTRESN>
    <VSSTRESU>beats/min</VSSTRESU>
    <VSSTAT/>
    <VSLOC/>
    <VSLOBXFL/>
    <VSREPNUM>3.0</VSREPNUM>
    <VISITNUM>8</VISITNUM>
    <VISIT>WEEK 8</VISIT>
    <EPOCH>TREATMENT</EPOCH>
    <VSDTC>2013-10-22</VSDTC>
    <VSDY>55</VSDY>
  </row>
  <row>
    <index>147</index>
    <STUDYID>CDISCPILOT01</STUDYID>
    <DOMAIN>VS</DOMAIN>
    <USUBJID>CDISC003</USUBJID>
    <VSSEQ>50</VSSEQ>
    <VSTESTCD>PULSE</VSTESTCD>
    <VSTEST>Pulse Rate</VSTEST>
    <VSPOS>SUPINE</VSPOS>
    <VSORRES>53</VSORRES>
    <VSORRESU>beats/min</VSORRESU>
    <VSSTRESC>53</VSSTRESC>
    <VSSTRESN>53.0</VSSTRESN>
    <VSSTRESU>beats/min</VSSTRESU>
    <VSSTAT/>
    <VSLOC/>
    <VSLOBXFL/>
    <VSREPNUM>1.0</VSREPNUM>
    <VISITNUM>9</VISITNUM>
    <VISIT>WEEK 12</VISIT>
    <EPOCH>TREATMENT</EPOCH>
    <VSDTC>2013-11-05</VSDTC>
    <VSDY>69</VSDY>
  </row>
  <row>
    <index>148</index>
    <STUDYID>CDISCPILOT01</STUDYID>
    <DOMAIN>VS</DOMAIN>
    <USUBJID>CDISC003</USUBJID>
    <VSSEQ>51</VSSEQ>
    <VSTESTCD>PULSE</VSTESTCD>
    <VSTEST>Pulse Rate</VSTEST>
    <VSPOS>STANDING</VSPOS>
    <VSORRES>55</VSORRES>
    <VSORRESU>beats/min</VSORRESU>
    <VSSTRESC>55</VSSTRESC>
    <VSSTRESN>55.0</VSSTRESN>
    <VSSTRESU>beats/min</VSSTRESU>
    <VSSTAT/>
    <VSLOC/>
    <VSLOBXFL/>
    <VSREPNUM>2.0</VSREPNUM>
    <VISITNUM>9</VISITNUM>
    <VISIT>WEEK 12</VISIT>
    <EPOCH>TREATMENT</EPOCH>
    <VSDTC>2013-11-05</VSDTC>
    <VSDY>69</VSDY>
  </row>
  <row>
    <index>149</index>
    <STUDYID>CDISCPILOT01</STUDYID>
    <DOMAIN>VS</DOMAIN>
    <USUBJID>CDISC003</USUBJID>
    <VSSEQ>52</VSSEQ>
    <VSTESTCD>PULSE</VSTESTCD>
    <VSTEST>Pulse Rate</VSTEST>
    <VSPOS>STANDING</VSPOS>
    <VSORRES>56</VSORRES>
    <VSORRESU>beats/min</VSORRESU>
    <VSSTRESC>56</VSSTRESC>
    <VSSTRESN>56.0</VSSTRESN>
    <VSSTRESU>beats/min</VSSTRESU>
    <VSSTAT/>
    <VSLOC/>
    <VSLOBXFL/>
    <VSREPNUM>3.0</VSREPNUM>
    <VISITNUM>9</VISITNUM>
    <VISIT>WEEK 12</VISIT>
    <EPOCH>TREATMENT</EPOCH>
    <VSDTC>2013-11-05</VSDTC>
    <VSDY>69</VSDY>
  </row>
  <row>
    <index>150</index>
    <STUDYID>CDISCPILOT01</STUDYID>
    <DOMAIN>VS</DOMAIN>
    <USUBJID>CDISC003</USUBJID>
    <VSSEQ>53</VSSEQ>
    <VSTESTCD>PULSE</VSTESTCD>
    <VSTEST>Pulse Rate</VSTEST>
    <VSPOS>SUPINE</VSPOS>
    <VSORRES>50</VSORRES>
    <VSORRESU>beats/min</VSORRESU>
    <VSSTRESC>50</VSSTRESC>
    <VSSTRESN>50.0</VSSTRESN>
    <VSSTRESU>beats/min</VSSTRESU>
    <VSSTAT/>
    <VSLOC/>
    <VSLOBXFL/>
    <VSREPNUM>1.0</VSREPNUM>
    <VISITNUM>201</VISITNUM>
    <VISIT>EARLY DISCONTINUATION RETRIEVAL</VISIT>
    <EPOCH>TREATMENT</EPOCH>
    <VSDTC>2014-02-13</VSDTC>
    <VSDY>169</VSDY>
  </row>
  <row>
    <index>151</index>
    <STUDYID>CDISCPILOT01</STUDYID>
    <DOMAIN>VS</DOMAIN>
    <USUBJID>CDISC003</USUBJID>
    <VSSEQ>54</VSSEQ>
    <VSTESTCD>PULSE</VSTESTCD>
    <VSTEST>Pulse Rate</VSTEST>
    <VSPOS>STANDING</VSPOS>
    <VSORRES>57</VSORRES>
    <VSORRESU>beats/min</VSORRESU>
    <VSSTRESC>57</VSSTRESC>
    <VSSTRESN>57.0</VSSTRESN>
    <VSSTRESU>beats/min</VSSTRESU>
    <VSSTAT/>
    <VSLOC/>
    <VSLOBXFL/>
    <VSREPNUM>2.0</VSREPNUM>
    <VISITNUM>201</VISITNUM>
    <VISIT>EARLY DISCONTINUATION RETRIEVAL</VISIT>
    <EPOCH>TREATMENT</EPOCH>
    <VSDTC>2014-02-13</VSDTC>
    <VSDY>169</VSDY>
  </row>
  <row>
    <index>152</index>
    <STUDYID>CDISCPILOT01</STUDYID>
    <DOMAIN>VS</DOMAIN>
    <USUBJID>CDISC003</USUBJID>
    <VSSEQ>55</VSSEQ>
    <VSTESTCD>PULSE</VSTESTCD>
    <VSTEST>Pulse Rate</VSTEST>
    <VSPOS>STANDING</VSPOS>
    <VSORRES>60</VSORRES>
    <VSORRESU>beats/min</VSORRESU>
    <VSSTRESC>60</VSSTRESC>
    <VSSTRESN>60.0</VSSTRESN>
    <VSSTRESU>beats/min</VSSTRESU>
    <VSSTAT/>
    <VSLOC/>
    <VSLOBXFL/>
    <VSREPNUM>3.0</VSREPNUM>
    <VISITNUM>201</VISITNUM>
    <VISIT>EARLY DISCONTINUATION RETRIEVAL</VISIT>
    <EPOCH>TREATMENT</EPOCH>
    <VSDTC>2014-02-13</VSDTC>
    <VSDY>169</VSDY>
  </row>
  <row>
    <index>153</index>
    <STUDYID>CDISCPILOT01</STUDYID>
    <DOMAIN>VS</DOMAIN>
    <USUBJID>CDISC003</USUBJID>
    <VSSEQ>56</VSSEQ>
    <VSTESTCD>SYSBP</VSTESTCD>
    <VSTEST>Systolic Blood Pressure</VSTEST>
    <VSPOS>SUPINE</VSPOS>
    <VSORRES>115</VSORRES>
    <VSORRESU>mmHg</VSORRESU>
    <VSSTRESC>115</VSSTRESC>
    <VSSTRESN>115.0</VSSTRESN>
    <VSSTRESU>mmHg</VSSTRESU>
    <VSSTAT/>
    <VSLOC/>
    <VSLOBXFL/>
    <VSREPNUM>1.0</VSREPNUM>
    <VISITNUM>1</VISITNUM>
    <VISIT>SCREENING 1</VISIT>
    <EPOCH>SCREENING</EPOCH>
    <VSDTC>2013-08-20</VSDTC>
    <VSDY>-9</VSDY>
  </row>
  <row>
    <index>154</index>
    <STUDYID>CDISCPILOT01</STUDYID>
    <DOMAIN>VS</DOMAIN>
    <USUBJID>CDISC003</USUBJID>
    <VSSEQ>57</VSSEQ>
    <VSTESTCD>SYSBP</VSTESTCD>
    <VSTEST>Systolic Blood Pressure</VSTEST>
    <VSPOS>STANDING</VSPOS>
    <VSORRES>122</VSORRES>
    <VSORRESU>mmHg</VSORRESU>
    <VSSTRESC>122</VSSTRESC>
    <VSSTRESN>122.0</VSSTRESN>
    <VSSTRESU>mmHg</VSSTRESU>
    <VSSTAT/>
    <VSLOC/>
    <VSLOBXFL/>
    <VSREPNUM>2.0</VSREPNUM>
    <VISITNUM>1</VISITNUM>
    <VISIT>SCREENING 1</VISIT>
    <EPOCH>SCREENING</EPOCH>
    <VSDTC>2013-08-20</VSDTC>
    <VSDY>-9</VSDY>
  </row>
  <row>
    <index>155</index>
    <STUDYID>CDISCPILOT01</STUDYID>
    <DOMAIN>VS</DOMAIN>
    <USUBJID>CDISC003</USUBJID>
    <VSSEQ>58</VSSEQ>
    <VSTESTCD>SYSBP</VSTESTCD>
    <VSTEST>Systolic Blood Pressure</VSTEST>
    <VSPOS>STANDING</VSPOS>
    <VSORRES>123</VSORRES>
    <VSORRESU>mmHg</VSORRESU>
    <VSSTRESC>123</VSSTRESC>
    <VSSTRESN>123.0</VSSTRESN>
    <VSSTRESU>mmHg</VSSTRESU>
    <VSSTAT/>
    <VSLOC/>
    <VSLOBXFL/>
    <VSREPNUM>3.0</VSREPNUM>
    <VISITNUM>1</VISITNUM>
    <VISIT>SCREENING 1</VISIT>
    <EPOCH>SCREENING</EPOCH>
    <VSDTC>2013-08-20</VSDTC>
    <VSDY>-9</VSDY>
  </row>
  <row>
    <index>156</index>
    <STUDYID>CDISCPILOT01</STUDYID>
    <DOMAIN>VS</DOMAIN>
    <USUBJID>CDISC003</USUBJID>
    <VSSEQ>59</VSSEQ>
    <VSTESTCD>SYSBP</VSTESTCD>
    <VSTEST>Systolic Blood Pressure</VSTEST>
    <VSPOS>SUPINE</VSPOS>
    <VSORRES>121</VSORRES>
    <VSORRESU>mmHg</VSORRESU>
    <VSSTRESC>121</VSSTRESC>
    <VSSTRESN>121.0</VSSTRESN>
    <VSSTRESU>mmHg</VSSTRESU>
    <VSSTAT/>
    <VSLOC/>
    <VSLOBXFL/>
    <VSREPNUM>1.0</VSREPNUM>
    <VISITNUM>2</VISITNUM>
    <VISIT>SCREENING 2</VISIT>
    <EPOCH>SCREENING</EPOCH>
    <VSDTC>2013-08-27</VSDTC>
    <VSDY>-2</VSDY>
  </row>
  <row>
    <index>157</index>
    <STUDYID>CDISCPILOT01</STUDYID>
    <DOMAIN>VS</DOMAIN>
    <USUBJID>CDISC003</USUBJID>
    <VSSEQ>60</VSSEQ>
    <VSTESTCD>SYSBP</VSTESTCD>
    <VSTEST>Systolic Blood Pressure</VSTEST>
    <VSPOS>STANDING</VSPOS>
    <VSORRES>106</VSORRES>
    <VSORRESU>mmHg</VSORRESU>
    <VSSTRESC>106</VSSTRESC>
    <VSSTRESN>106.0</VSSTRESN>
    <VSSTRESU>mmHg</VSSTRESU>
    <VSSTAT/>
    <VSLOC/>
    <VSLOBXFL/>
    <VSREPNUM>2.0</VSREPNUM>
    <VISITNUM>2</VISITNUM>
    <VISIT>SCREENING 2</VISIT>
    <EPOCH>SCREENING</EPOCH>
    <VSDTC>2013-08-27</VSDTC>
    <VSDY>-2</VSDY>
  </row>
  <row>
    <index>158</index>
    <STUDYID>CDISCPILOT01</STUDYID>
    <DOMAIN>VS</DOMAIN>
    <USUBJID>CDISC003</USUBJID>
    <VSSEQ>61</VSSEQ>
    <VSTESTCD>SYSBP</VSTESTCD>
    <VSTEST>Systolic Blood Pressure</VSTEST>
    <VSPOS>STANDING</VSPOS>
    <VSORRES>115</VSORRES>
    <VSORRESU>mmHg</VSORRESU>
    <VSSTRESC>115</VSSTRESC>
    <VSSTRESN>115.0</VSSTRESN>
    <VSSTRESU>mmHg</VSSTRESU>
    <VSSTAT/>
    <VSLOC/>
    <VSLOBXFL/>
    <VSREPNUM>3.0</VSREPNUM>
    <VISITNUM>2</VISITNUM>
    <VISIT>SCREENING 2</VISIT>
    <EPOCH>SCREENING</EPOCH>
    <VSDTC>2013-08-27</VSDTC>
    <VSDY>-2</VSDY>
  </row>
  <row>
    <index>159</index>
    <STUDYID>CDISCPILOT01</STUDYID>
    <DOMAIN>VS</DOMAIN>
    <USUBJID>CDISC003</USUBJID>
    <VSSEQ>62</VSSEQ>
    <VSTESTCD>SYSBP</VSTESTCD>
    <VSTEST>Systolic Blood Pressure</VSTEST>
    <VSPOS>SUPINE</VSPOS>
    <VSORRES>131</VSORRES>
    <VSORRESU>mmHg</VSORRESU>
    <VSSTRESC>131</VSSTRESC>
    <VSSTRESN>131.0</VSSTRESN>
    <VSSTRESU>mmHg</VSSTRESU>
    <VSSTAT/>
    <VSLOC/>
    <VSLOBXFL/>
    <VSREPNUM>1.0</VSREPNUM>
    <VISITNUM>3</VISITNUM>
    <VISIT>BASELINE</VISIT>
    <EPOCH>SCREENING</EPOCH>
    <VSDTC>2013-08-29</VSDTC>
    <VSDY>1</VSDY>
  </row>
  <row>
    <index>160</index>
    <STUDYID>CDISCPILOT01</STUDYID>
    <DOMAIN>VS</DOMAIN>
    <USUBJID>CDISC003</USUBJID>
    <VSSEQ>63</VSSEQ>
    <VSTESTCD>SYSBP</VSTESTCD>
    <VSTEST>Systolic Blood Pressure</VSTEST>
    <VSPOS>STANDING</VSPOS>
    <VSORRES>137</VSORRES>
    <VSORRESU>mmHg</VSORRESU>
    <VSSTRESC>137</VSSTRESC>
    <VSSTRESN>137.0</VSSTRESN>
    <VSSTRESU>mmHg</VSSTRESU>
    <VSSTAT/>
    <VSLOC/>
    <VSLOBXFL/>
    <VSREPNUM>2.0</VSREPNUM>
    <VISITNUM>3</VISITNUM>
    <VISIT>BASELINE</VISIT>
    <EPOCH>SCREENING</EPOCH>
    <VSDTC>2013-08-29</VSDTC>
    <VSDY>1</VSDY>
  </row>
  <row>
    <index>161</index>
    <STUDYID>CDISCPILOT01</STUDYID>
    <DOMAIN>VS</DOMAIN>
    <USUBJID>CDISC003</USUBJID>
    <VSSEQ>64</VSSEQ>
    <VSTESTCD>SYSBP</VSTESTCD>
    <VSTEST>Systolic Blood Pressure</VSTEST>
    <VSPOS>STANDING</VSPOS>
    <VSORRES>136</VSORRES>
    <VSORRESU>mmHg</VSORRESU>
    <VSSTRESC>136</VSSTRESC>
    <VSSTRESN>136.0</VSSTRESN>
    <VSSTRESU>mmHg</VSSTRESU>
    <VSSTAT/>
    <VSLOC/>
    <VSLOBXFL>Y</VSLOBXFL>
    <VSREPNUM>3.0</VSREPNUM>
    <VISITNUM>3</VISITNUM>
    <VISIT>BASELINE</VISIT>
    <EPOCH>SCREENING</EPOCH>
    <VSDTC>2013-08-29</VSDTC>
    <VSDY>1</VSDY>
  </row>
  <row>
    <index>162</index>
    <STUDYID>CDISCPILOT01</STUDYID>
    <DOMAIN>VS</DOMAIN>
    <USUBJID>CDISC003</USUBJID>
    <VSSEQ>65</VSSEQ>
    <VSTESTCD>SYSBP</VSTESTCD>
    <VSTEST>Systolic Blood Pressure</VSTEST>
    <VSPOS>SUPINE</VSPOS>
    <VSORRES>114</VSORRES>
    <VSORRESU>mmHg</VSORRESU>
    <VSSTRESC>114</VSSTRESC>
    <VSSTRESN>114.0</VSSTRESN>
    <VSSTRESU>mmHg</VSSTRESU>
    <VSSTAT/>
    <VSLOC/>
    <VSLOBXFL/>
    <VSREPNUM>1.0</VSREPNUM>
    <VISITNUM>4</VISITNUM>
    <VISIT>WEEK 2</VISIT>
    <EPOCH>TREATMENT</EPOCH>
    <VSDTC>2013-09-15</VSDTC>
    <VSDY>18</VSDY>
  </row>
  <row>
    <index>163</index>
    <STUDYID>CDISCPILOT01</STUDYID>
    <DOMAIN>VS</DOMAIN>
    <USUBJID>CDISC003</USUBJID>
    <VSSEQ>66</VSSEQ>
    <VSTESTCD>SYSBP</VSTESTCD>
    <VSTEST>Systolic Blood Pressure</VSTEST>
    <VSPOS>STANDING</VSPOS>
    <VSORRES>114</VSORRES>
    <VSORRESU>mmHg</VSORRESU>
    <VSSTRESC>114</VSSTRESC>
    <VSSTRESN>114.0</VSSTRESN>
    <VSSTRESU>mmHg</VSSTRESU>
    <VSSTAT/>
    <VSLOC/>
    <VSLOBXFL/>
    <VSREPNUM>2.0</VSREPNUM>
    <VISITNUM>4</VISITNUM>
    <VISIT>WEEK 2</VISIT>
    <EPOCH>TREATMENT</EPOCH>
    <VSDTC>2013-09-15</VSDTC>
    <VSDY>18</VSDY>
  </row>
  <row>
    <index>164</index>
    <STUDYID>CDISCPILOT01</STUDYID>
    <DOMAIN>VS</DOMAIN>
    <USUBJID>CDISC003</USUBJID>
    <VSSEQ>67</VSSEQ>
    <VSTESTCD>SYSBP</VSTESTCD>
    <VSTEST>Systolic Blood Pressure</VSTEST>
    <VSPOS>STANDING</VSPOS>
    <VSORRES>123</VSORRES>
    <VSORRESU>mmHg</VSORRESU>
    <VSSTRESC>123</VSSTRESC>
    <VSSTRESN>123.0</VSSTRESN>
    <VSSTRESU>mmHg</VSSTRESU>
    <VSSTAT/>
    <VSLOC/>
    <VSLOBXFL/>
    <VSREPNUM>3.0</VSREPNUM>
    <VISITNUM>4</VISITNUM>
    <VISIT>WEEK 2</VISIT>
    <EPOCH>TREATMENT</EPOCH>
    <VSDTC>2013-09-15</VSDTC>
    <VSDY>18</VSDY>
  </row>
  <row>
    <index>165</index>
    <STUDYID>CDISCPILOT01</STUDYID>
    <DOMAIN>VS</DOMAIN>
    <USUBJID>CDISC003</USUBJID>
    <VSSEQ>68</VSSEQ>
    <VSTESTCD>SYSBP</VSTESTCD>
    <VSTEST>Systolic Blood Pressure</VSTEST>
    <VSPOS>SUPINE</VSPOS>
    <VSORRES>123</VSORRES>
    <VSORRESU>mmHg</VSORRESU>
    <VSSTRESC>123</VSSTRESC>
    <VSSTRESN>123.0</VSSTRESN>
    <VSSTRESU>mmHg</VSSTRESU>
    <VSSTAT/>
    <VSLOC/>
    <VSLOBXFL/>
    <VSREPNUM>1.0</VSREPNUM>
    <VISITNUM>5</VISITNUM>
    <VISIT>WEEK 4</VISIT>
    <EPOCH>TREATMENT</EPOCH>
    <VSDTC>2013-09-24</VSDTC>
    <VSDY>27</VSDY>
  </row>
  <row>
    <index>166</index>
    <STUDYID>CDISCPILOT01</STUDYID>
    <DOMAIN>VS</DOMAIN>
    <USUBJID>CDISC003</USUBJID>
    <VSSEQ>69</VSSEQ>
    <VSTESTCD>SYSBP</VSTESTCD>
    <VSTEST>Systolic Blood Pressure</VSTEST>
    <VSPOS>STANDING</VSPOS>
    <VSORRES>115</VSORRES>
    <VSORRESU>mmHg</VSORRESU>
    <VSSTRESC>115</VSSTRESC>
    <VSSTRESN>115.0</VSSTRESN>
    <VSSTRESU>mmHg</VSSTRESU>
    <VSSTAT/>
    <VSLOC/>
    <VSLOBXFL/>
    <VSREPNUM>2.0</VSREPNUM>
    <VISITNUM>5</VISITNUM>
    <VISIT>WEEK 4</VISIT>
    <EPOCH>TREATMENT</EPOCH>
    <VSDTC>2013-09-24</VSDTC>
    <VSDY>27</VSDY>
  </row>
  <row>
    <index>167</index>
    <STUDYID>CDISCPILOT01</STUDYID>
    <DOMAIN>VS</DOMAIN>
    <USUBJID>CDISC003</USUBJID>
    <VSSEQ>70</VSSEQ>
    <VSTESTCD>SYSBP</VSTESTCD>
    <VSTEST>Systolic Blood Pressure</VSTEST>
    <VSPOS>STANDING</VSPOS>
    <VSORRES>131</VSORRES>
    <VSORRESU>mmHg</VSORRESU>
    <VSSTRESC>131</VSSTRESC>
    <VSSTRESN>131.0</VSSTRESN>
    <VSSTRESU>mmHg</VSSTRESU>
    <VSSTAT/>
    <VSLOC/>
    <VSLOBXFL/>
    <VSREPNUM>3.0</VSREPNUM>
    <VISITNUM>5</VISITNUM>
    <VISIT>WEEK 4</VISIT>
    <EPOCH>TREATMENT</EPOCH>
    <VSDTC>2013-09-24</VSDTC>
    <VSDY>27</VSDY>
  </row>
  <row>
    <index>168</index>
    <STUDYID>CDISCPILOT01</STUDYID>
    <DOMAIN>VS</DOMAIN>
    <USUBJID>CDISC003</USUBJID>
    <VSSEQ>71</VSSEQ>
    <VSTESTCD>SYSBP</VSTESTCD>
    <VSTEST>Systolic Blood Pressure</VSTEST>
    <VSPOS>SUPINE</VSPOS>
    <VSORRES>108</VSORRES>
    <VSORRESU>mmHg</VSORRESU>
    <VSSTRESC>108</VSSTRESC>
    <VSSTRESN>108.0</VSSTRESN>
    <VSSTRESU>mmHg</VSSTRESU>
    <VSSTAT/>
    <VSLOC/>
    <VSLOBXFL/>
    <VSREPNUM>1.0</VSREPNUM>
    <VISITNUM>7</VISITNUM>
    <VISIT>WEEK 6</VISIT>
    <EPOCH>TREATMENT</EPOCH>
    <VSDTC>2013-10-08</VSDTC>
    <VSDY>41</VSDY>
  </row>
  <row>
    <index>169</index>
    <STUDYID>CDISCPILOT01</STUDYID>
    <DOMAIN>VS</DOMAIN>
    <USUBJID>CDISC003</USUBJID>
    <VSSEQ>72</VSSEQ>
    <VSTESTCD>SYSBP</VSTESTCD>
    <VSTEST>Systolic Blood Pressure</VSTEST>
    <VSPOS>STANDING</VSPOS>
    <VSORRES>115</VSORRES>
    <VSORRESU>mmHg</VSORRESU>
    <VSSTRESC>115</VSSTRESC>
    <VSSTRESN>115.0</VSSTRESN>
    <VSSTRESU>mmHg</VSSTRESU>
    <VSSTAT/>
    <VSLOC/>
    <VSLOBXFL/>
    <VSREPNUM>2.0</VSREPNUM>
    <VISITNUM>7</VISITNUM>
    <VISIT>WEEK 6</VISIT>
    <EPOCH>TREATMENT</EPOCH>
    <VSDTC>2013-10-08</VSDTC>
    <VSDY>41</VSDY>
  </row>
  <row>
    <index>170</index>
    <STUDYID>CDISCPILOT01</STUDYID>
    <DOMAIN>VS</DOMAIN>
    <USUBJID>CDISC003</USUBJID>
    <VSSEQ>73</VSSEQ>
    <VSTESTCD>SYSBP</VSTESTCD>
    <VSTEST>Systolic Blood Pressure</VSTEST>
    <VSPOS>STANDING</VSPOS>
    <VSORRES>123</VSORRES>
    <VSORRESU>mmHg</VSORRESU>
    <VSSTRESC>123</VSSTRESC>
    <VSSTRESN>123.0</VSSTRESN>
    <VSSTRESU>mmHg</VSSTRESU>
    <VSSTAT/>
    <VSLOC/>
    <VSLOBXFL/>
    <VSREPNUM>3.0</VSREPNUM>
    <VISITNUM>7</VISITNUM>
    <VISIT>WEEK 6</VISIT>
    <EPOCH>TREATMENT</EPOCH>
    <VSDTC>2013-10-08</VSDTC>
    <VSDY>41</VSDY>
  </row>
  <row>
    <index>171</index>
    <STUDYID>CDISCPILOT01</STUDYID>
    <DOMAIN>VS</DOMAIN>
    <USUBJID>CDISC003</USUBJID>
    <VSSEQ>74</VSSEQ>
    <VSTESTCD>SYSBP</VSTESTCD>
    <VSTEST>Systolic Blood Pressure</VSTEST>
    <VSPOS>SUPINE</VSPOS>
    <VSORRES>115</VSORRES>
    <VSORRESU>mmHg</VSORRESU>
    <VSSTRESC>115</VSSTRESC>
    <VSSTRESN>115.0</VSSTRESN>
    <VSSTRESU>mmHg</VSSTRESU>
    <VSSTAT/>
    <VSLOC/>
    <VSLOBXFL/>
    <VSREPNUM>1.0</VSREPNUM>
    <VISITNUM>8</VISITNUM>
    <VISIT>WEEK 8</VISIT>
    <EPOCH>TREATMENT</EPOCH>
    <VSDTC>2013-10-22</VSDTC>
    <VSDY>55</VSDY>
  </row>
  <row>
    <index>172</index>
    <STUDYID>CDISCPILOT01</STUDYID>
    <DOMAIN>VS</DOMAIN>
    <USUBJID>CDISC003</USUBJID>
    <VSSEQ>75</VSSEQ>
    <VSTESTCD>SYSBP</VSTESTCD>
    <VSTEST>Systolic Blood Pressure</VSTEST>
    <VSPOS>STANDING</VSPOS>
    <VSORRES>115</VSORRES>
    <VSORRESU>mmHg</VSORRESU>
    <VSSTRESC>115</VSSTRESC>
    <VSSTRESN>115.0</VSSTRESN>
    <VSSTRESU>mmHg</VSSTRESU>
    <VSSTAT/>
    <VSLOC/>
    <VSLOBXFL/>
    <VSREPNUM>2.0</VSREPNUM>
    <VISITNUM>8</VISITNUM>
    <VISIT>WEEK 8</VISIT>
    <EPOCH>TREATMENT</EPOCH>
    <VSDTC>2013-10-22</VSDTC>
    <VSDY>55</VSDY>
  </row>
  <row>
    <index>173</index>
    <STUDYID>CDISCPILOT01</STUDYID>
    <DOMAIN>VS</DOMAIN>
    <USUBJID>CDISC003</USUBJID>
    <VSSEQ>76</VSSEQ>
    <VSTESTCD>SYSBP</VSTESTCD>
    <VSTEST>Systolic Blood Pressure</VSTEST>
    <VSPOS>STANDING</VSPOS>
    <VSORRES>114</VSORRES>
    <VSORRESU>mmHg</VSORRESU>
    <VSSTRESC>114</VSSTRESC>
    <VSSTRESN>114.0</VSSTRESN>
    <VSSTRESU>mmHg</VSSTRESU>
    <VSSTAT/>
    <VSLOC/>
    <VSLOBXFL/>
    <VSREPNUM>3.0</VSREPNUM>
    <VISITNUM>8</VISITNUM>
    <VISIT>WEEK 8</VISIT>
    <EPOCH>TREATMENT</EPOCH>
    <VSDTC>2013-10-22</VSDTC>
    <VSDY>55</VSDY>
  </row>
  <row>
    <index>174</index>
    <STUDYID>CDISCPILOT01</STUDYID>
    <DOMAIN>VS</DOMAIN>
    <USUBJID>CDISC003</USUBJID>
    <VSSEQ>77</VSSEQ>
    <VSTESTCD>SYSBP</VSTESTCD>
    <VSTEST>Systolic Blood Pressure</VSTEST>
    <VSPOS>SUPINE</VSPOS>
    <VSORRES>115</VSORRES>
    <VSORRESU>mmHg</VSORRESU>
    <VSSTRESC>115</VSSTRESC>
    <VSSTRESN>115.0</VSSTRESN>
    <VSSTRESU>mmHg</VSSTRESU>
    <VSSTAT/>
    <VSLOC/>
    <VSLOBXFL/>
    <VSREPNUM>1.0</VSREPNUM>
    <VISITNUM>9</VISITNUM>
    <VISIT>WEEK 12</VISIT>
    <EPOCH>TREATMENT</EPOCH>
    <VSDTC>2013-11-05</VSDTC>
    <VSDY>69</VSDY>
  </row>
  <row>
    <index>175</index>
    <STUDYID>CDISCPILOT01</STUDYID>
    <DOMAIN>VS</DOMAIN>
    <USUBJID>CDISC003</USUBJID>
    <VSSEQ>78</VSSEQ>
    <VSTESTCD>SYSBP</VSTESTCD>
    <VSTEST>Systolic Blood Pressure</VSTEST>
    <VSPOS>STANDING</VSPOS>
    <VSORRES>124</VSORRES>
    <VSORRESU>mmHg</VSORRESU>
    <VSSTRESC>124</VSSTRESC>
    <VSSTRESN>124.0</VSSTRESN>
    <VSSTRESU>mmHg</VSSTRESU>
    <VSSTAT/>
    <VSLOC/>
    <VSLOBXFL/>
    <VSREPNUM>2.0</VSREPNUM>
    <VISITNUM>9</VISITNUM>
    <VISIT>WEEK 12</VISIT>
    <EPOCH>TREATMENT</EPOCH>
    <VSDTC>2013-11-05</VSDTC>
    <VSDY>69</VSDY>
  </row>
  <row>
    <index>176</index>
    <STUDYID>CDISCPILOT01</STUDYID>
    <DOMAIN>VS</DOMAIN>
    <USUBJID>CDISC003</USUBJID>
    <VSSEQ>79</VSSEQ>
    <VSTESTCD>SYSBP</VSTESTCD>
    <VSTEST>Systolic Blood Pressure</VSTEST>
    <VSPOS>STANDING</VSPOS>
    <VSORRES>131</VSORRES>
    <VSORRESU>mmHg</VSORRESU>
    <VSSTRESC>131</VSSTRESC>
    <VSSTRESN>131.0</VSSTRESN>
    <VSSTRESU>mmHg</VSSTRESU>
    <VSSTAT/>
    <VSLOC/>
    <VSLOBXFL/>
    <VSREPNUM>3.0</VSREPNUM>
    <VISITNUM>9</VISITNUM>
    <VISIT>WEEK 12</VISIT>
    <EPOCH>TREATMENT</EPOCH>
    <VSDTC>2013-11-05</VSDTC>
    <VSDY>69</VSDY>
  </row>
  <row>
    <index>177</index>
    <STUDYID>CDISCPILOT01</STUDYID>
    <DOMAIN>VS</DOMAIN>
    <USUBJID>CDISC003</USUBJID>
    <VSSEQ>80</VSSEQ>
    <VSTESTCD>SYSBP</VSTESTCD>
    <VSTEST>Systolic Blood Pressure</VSTEST>
    <VSPOS>SUPINE</VSPOS>
    <VSORRES>122</VSORRES>
    <VSORRESU>mmHg</VSORRESU>
    <VSSTRESC>122</VSSTRESC>
    <VSSTRESN>122.0</VSSTRESN>
    <VSSTRESU>mmHg</VSSTRESU>
    <VSSTAT/>
    <VSLOC/>
    <VSLOBXFL/>
    <VSREPNUM>1.0</VSREPNUM>
    <VISITNUM>201</VISITNUM>
    <VISIT>EARLY DISCONTINUATION RETRIEVAL</VISIT>
    <EPOCH>TREATMENT</EPOCH>
    <VSDTC>2014-02-13</VSDTC>
    <VSDY>169</VSDY>
  </row>
  <row>
    <index>178</index>
    <STUDYID>CDISCPILOT01</STUDYID>
    <DOMAIN>VS</DOMAIN>
    <USUBJID>CDISC003</USUBJID>
    <VSSEQ>81</VSSEQ>
    <VSTESTCD>SYSBP</VSTESTCD>
    <VSTEST>Systolic Blood Pressure</VSTEST>
    <VSPOS>STANDING</VSPOS>
    <VSORRES>117</VSORRES>
    <VSORRESU>mmHg</VSORRESU>
    <VSSTRESC>117</VSSTRESC>
    <VSSTRESN>117.0</VSSTRESN>
    <VSSTRESU>mmHg</VSSTRESU>
    <VSSTAT/>
    <VSLOC/>
    <VSLOBXFL/>
    <VSREPNUM>2.0</VSREPNUM>
    <VISITNUM>201</VISITNUM>
    <VISIT>EARLY DISCONTINUATION RETRIEVAL</VISIT>
    <EPOCH>TREATMENT</EPOCH>
    <VSDTC>2014-02-13</VSDTC>
    <VSDY>169</VSDY>
  </row>
  <row>
    <index>179</index>
    <STUDYID>CDISCPILOT01</STUDYID>
    <DOMAIN>VS</DOMAIN>
    <USUBJID>CDISC003</USUBJID>
    <VSSEQ>82</VSSEQ>
    <VSTESTCD>SYSBP</VSTESTCD>
    <VSTEST>Systolic Blood Pressure</VSTEST>
    <VSPOS>STANDING</VSPOS>
    <VSORRES>131</VSORRES>
    <VSORRESU>mmHg</VSORRESU>
    <VSSTRESC>131</VSSTRESC>
    <VSSTRESN>131.0</VSSTRESN>
    <VSSTRESU>mmHg</VSSTRESU>
    <VSSTAT/>
    <VSLOC/>
    <VSLOBXFL/>
    <VSREPNUM>3.0</VSREPNUM>
    <VISITNUM>201</VISITNUM>
    <VISIT>EARLY DISCONTINUATION RETRIEVAL</VISIT>
    <EPOCH>TREATMENT</EPOCH>
    <VSDTC>2014-02-13</VSDTC>
    <VSDY>169</VSDY>
  </row>
  <row>
    <index>180</index>
    <STUDYID>CDISCPILOT01</STUDYID>
    <DOMAIN>VS</DOMAIN>
    <USUBJID>CDISC003</USUBJID>
    <VSSEQ>83</VSSEQ>
    <VSTESTCD>TEMP</VSTESTCD>
    <VSTEST>Temperature</VSTEST>
    <VSPOS/>
    <VSORRES>97.7</VSORRES>
    <VSORRESU>F</VSORRESU>
    <VSSTRESC>36.5</VSSTRESC>
    <VSSTRESN>36.5</VSSTRESN>
    <VSSTRESU>C</VSSTRESU>
    <VSSTAT/>
    <VSLOC>ORAL CAVITY</VSLOC>
    <VSLOBXFL/>
    <VSREPNUM/>
    <VISITNUM>1</VISITNUM>
    <VISIT>SCREENING 1</VISIT>
    <EPOCH>SCREENING</EPOCH>
    <VSDTC>2013-08-20</VSDTC>
    <VSDY>-9</VSDY>
  </row>
  <row>
    <index>181</index>
    <STUDYID>CDISCPILOT01</STUDYID>
    <DOMAIN>VS</DOMAIN>
    <USUBJID>CDISC003</USUBJID>
    <VSSEQ>84</VSSEQ>
    <VSTESTCD>TEMP</VSTESTCD>
    <VSTEST>Temperature</VSTEST>
    <VSPOS/>
    <VSORRES>98.9</VSORRES>
    <VSORRESU>F</VSORRESU>
    <VSSTRESC>37.17</VSSTRESC>
    <VSSTRESN>37.17</VSSTRESN>
    <VSSTRESU>C</VSSTRESU>
    <VSSTAT/>
    <VSLOC>ORAL CAVITY</VSLOC>
    <VSLOBXFL/>
    <VSREPNUM/>
    <VISITNUM>2</VISITNUM>
    <VISIT>SCREENING 2</VISIT>
    <EPOCH>SCREENING</EPOCH>
    <VSDTC>2013-08-27</VSDTC>
    <VSDY>-2</VSDY>
  </row>
  <row>
    <index>182</index>
    <STUDYID>CDISCPILOT01</STUDYID>
    <DOMAIN>VS</DOMAIN>
    <USUBJID>CDISC003</USUBJID>
    <VSSEQ>85</VSSEQ>
    <VSTESTCD>TEMP</VSTESTCD>
    <VSTEST>Temperature</VSTEST>
    <VSPOS/>
    <VSORRES>96.3</VSORRES>
    <VSORRESU>F</VSORRESU>
    <VSSTRESC>35.72</VSSTRESC>
    <VSSTRESN>35.72</VSSTRESN>
    <VSSTRESU>C</VSSTRESU>
    <VSSTAT/>
    <VSLOC>ORAL CAVITY</VSLOC>
    <VSLOBXFL>Y</VSLOBXFL>
    <VSREPNUM/>
    <VISITNUM>3</VISITNUM>
    <VISIT>BASELINE</VISIT>
    <EPOCH>SCREENING</EPOCH>
    <VSDTC>2013-08-29</VSDTC>
    <VSDY>1</VSDY>
  </row>
  <row>
    <index>183</index>
    <STUDYID>CDISCPILOT01</STUDYID>
    <DOMAIN>VS</DOMAIN>
    <USUBJID>CDISC003</USUBJID>
    <VSSEQ>86</VSSEQ>
    <VSTESTCD>TEMP</VSTESTCD>
    <VSTEST>Temperature</VSTEST>
    <VSPOS/>
    <VSORRES>98.3</VSORRES>
    <VSORRESU>F</VSORRESU>
    <VSSTRESC>36.83</VSSTRESC>
    <VSSTRESN>36.83</VSSTRESN>
    <VSSTRESU>C</VSSTRESU>
    <VSSTAT/>
    <VSLOC>ORAL CAVITY</VSLOC>
    <VSLOBXFL/>
    <VSREPNUM/>
    <VISITNUM>4</VISITNUM>
    <VISIT>WEEK 2</VISIT>
    <EPOCH>TREATMENT</EPOCH>
    <VSDTC>2013-09-15</VSDTC>
    <VSDY>18</VSDY>
  </row>
  <row>
    <index>184</index>
    <STUDYID>CDISCPILOT01</STUDYID>
    <DOMAIN>VS</DOMAIN>
    <USUBJID>CDISC003</USUBJID>
    <VSSEQ>87</VSSEQ>
    <VSTESTCD>TEMP</VSTESTCD>
    <VSTEST>Temperature</VSTEST>
    <VSPOS/>
    <VSORRES>97.1</VSORRES>
    <VSORRESU>F</VSORRESU>
    <VSSTRESC>36.17</VSSTRESC>
    <VSSTRESN>36.17</VSSTRESN>
    <VSSTRESU>C</VSSTRESU>
    <VSSTAT/>
    <VSLOC>ORAL CAVITY</VSLOC>
    <VSLOBXFL/>
    <VSREPNUM/>
    <VISITNUM>5</VISITNUM>
    <VISIT>WEEK 4</VISIT>
    <EPOCH>TREATMENT</EPOCH>
    <VSDTC>2013-09-24</VSDTC>
    <VSDY>27</VSDY>
  </row>
  <row>
    <index>185</index>
    <STUDYID>CDISCPILOT01</STUDYID>
    <DOMAIN>VS</DOMAIN>
    <USUBJID>CDISC003</USUBJID>
    <VSSEQ>88</VSSEQ>
    <VSTESTCD>TEMP</VSTESTCD>
    <VSTEST>Temperature</VSTEST>
    <VSPOS/>
    <VSORRES>97.9</VSORRES>
    <VSORRESU>F</VSORRESU>
    <VSSTRESC>36.61</VSSTRESC>
    <VSSTRESN>36.61</VSSTRESN>
    <VSSTRESU>C</VSSTRESU>
    <VSSTAT/>
    <VSLOC>ORAL CAVITY</VSLOC>
    <VSLOBXFL/>
    <VSREPNUM/>
    <VISITNUM>7</VISITNUM>
    <VISIT>WEEK 6</VISIT>
    <EPOCH>TREATMENT</EPOCH>
    <VSDTC>2013-10-08</VSDTC>
    <VSDY>41</VSDY>
  </row>
  <row>
    <index>186</index>
    <STUDYID>CDISCPILOT01</STUDYID>
    <DOMAIN>VS</DOMAIN>
    <USUBJID>CDISC003</USUBJID>
    <VSSEQ>89</VSSEQ>
    <VSTESTCD>TEMP</VSTESTCD>
    <VSTEST>Temperature</VSTEST>
    <VSPOS/>
    <VSORRES>98.1</VSORRES>
    <VSORRESU>F</VSORRESU>
    <VSSTRESC>36.72</VSSTRESC>
    <VSSTRESN>36.72</VSSTRESN>
    <VSSTRESU>C</VSSTRESU>
    <VSSTAT/>
    <VSLOC>ORAL CAVITY</VSLOC>
    <VSLOBXFL/>
    <VSREPNUM/>
    <VISITNUM>8</VISITNUM>
    <VISIT>WEEK 8</VISIT>
    <EPOCH>TREATMENT</EPOCH>
    <VSDTC>2013-10-22</VSDTC>
    <VSDY>55</VSDY>
  </row>
  <row>
    <index>187</index>
    <STUDYID>CDISCPILOT01</STUDYID>
    <DOMAIN>VS</DOMAIN>
    <USUBJID>CDISC003</USUBJID>
    <VSSEQ>90</VSSEQ>
    <VSTESTCD>TEMP</VSTESTCD>
    <VSTEST>Temperature</VSTEST>
    <VSPOS/>
    <VSORRES>97.9</VSORRES>
    <VSORRESU>F</VSORRESU>
    <VSSTRESC>36.61</VSSTRESC>
    <VSSTRESN>36.61</VSSTRESN>
    <VSSTRESU>C</VSSTRESU>
    <VSSTAT/>
    <VSLOC>ORAL CAVITY</VSLOC>
    <VSLOBXFL/>
    <VSREPNUM/>
    <VISITNUM>9</VISITNUM>
    <VISIT>WEEK 12</VISIT>
    <EPOCH>TREATMENT</EPOCH>
    <VSDTC>2013-11-05</VSDTC>
    <VSDY>69</VSDY>
  </row>
  <row>
    <index>188</index>
    <STUDYID>CDISCPILOT01</STUDYID>
    <DOMAIN>VS</DOMAIN>
    <USUBJID>CDISC003</USUBJID>
    <VSSEQ>91</VSSEQ>
    <VSTESTCD>TEMP</VSTESTCD>
    <VSTEST>Temperature</VSTEST>
    <VSPOS/>
    <VSORRES>97.4</VSORRES>
    <VSORRESU>F</VSORRESU>
    <VSSTRESC>36.33</VSSTRESC>
    <VSSTRESN>36.33</VSSTRESN>
    <VSSTRESU>C</VSSTRESU>
    <VSSTAT/>
    <VSLOC>ORAL CAVITY</VSLOC>
    <VSLOBXFL/>
    <VSREPNUM/>
    <VISITNUM>201</VISITNUM>
    <VISIT>EARLY DISCONTINUATION RETRIEVAL</VISIT>
    <EPOCH>TREATMENT</EPOCH>
    <VSDTC>2014-02-13</VSDTC>
    <VSDY>169</VSDY>
  </row>
  <row>
    <index>189</index>
    <STUDYID>CDISCPILOT01</STUDYID>
    <DOMAIN>VS</DOMAIN>
    <USUBJID>CDISC003</USUBJID>
    <VSSEQ>92</VSSEQ>
    <VSTESTCD>WEIGHT</VSTESTCD>
    <VSTEST>Weight</VSTEST>
    <VSPOS/>
    <VSORRES>179.0</VSORRES>
    <VSORRESU>LB</VSORRESU>
    <VSSTRESC>81.19</VSSTRESC>
    <VSSTRESN>81.19</VSSTRESN>
    <VSSTRESU>kg</VSSTRESU>
    <VSSTAT/>
    <VSLOC/>
    <VSLOBXFL/>
    <VSREPNUM/>
    <VISITNUM>1</VISITNUM>
    <VISIT>SCREENING 1</VISIT>
    <EPOCH>SCREENING</EPOCH>
    <VSDTC>2013-08-20</VSDTC>
    <VSDY>-9</VSDY>
  </row>
  <row>
    <index>190</index>
    <STUDYID>CDISCPILOT01</STUDYID>
    <DOMAIN>VS</DOMAIN>
    <USUBJID>CDISC003</USUBJID>
    <VSSEQ>93</VSSEQ>
    <VSTESTCD>WEIGHT</VSTESTCD>
    <VSTEST>Weight</VSTEST>
    <VSPOS/>
    <VSORRES>181.0</VSORRES>
    <VSORRESU>LB</VSORRESU>
    <VSSTRESC>82.1</VSSTRESC>
    <VSSTRESN>82.1</VSSTRESN>
    <VSSTRESU>kg</VSSTRESU>
    <VSSTAT/>
    <VSLOC/>
    <VSLOBXFL>Y</VSLOBXFL>
    <VSREPNUM/>
    <VISITNUM>3</VISITNUM>
    <VISIT>BASELINE</VISIT>
    <EPOCH>SCREENING</EPOCH>
    <VSDTC>2013-08-29</VSDTC>
    <VSDY>1</VSDY>
  </row>
  <row>
    <index>191</index>
    <STUDYID>CDISCPILOT01</STUDYID>
    <DOMAIN>VS</DOMAIN>
    <USUBJID>CDISC003</USUBJID>
    <VSSEQ>94</VSSEQ>
    <VSTESTCD>WEIGHT</VSTESTCD>
    <VSTEST>Weight</VSTEST>
    <VSPOS/>
    <VSORRES>179.0</VSORRES>
    <VSORRESU>LB</VSORRESU>
    <VSSTRESC>81.19</VSSTRESC>
    <VSSTRESN>81.19</VSSTRESN>
    <VSSTRESU>kg</VSSTRESU>
    <VSSTAT/>
    <VSLOC/>
    <VSLOBXFL/>
    <VSREPNUM/>
    <VISITNUM>4</VISITNUM>
    <VISIT>WEEK 2</VISIT>
    <EPOCH>TREATMENT</EPOCH>
    <VSDTC>2013-09-15</VSDTC>
    <VSDY>18</VSDY>
  </row>
  <row>
    <index>192</index>
    <STUDYID>CDISCPILOT01</STUDYID>
    <DOMAIN>VS</DOMAIN>
    <USUBJID>CDISC003</USUBJID>
    <VSSEQ>95</VSSEQ>
    <VSTESTCD>WEIGHT</VSTESTCD>
    <VSTEST>Weight</VSTEST>
    <VSPOS/>
    <VSORRES>182.0</VSORRES>
    <VSORRESU>LB</VSORRESU>
    <VSSTRESC>82.56</VSSTRESC>
    <VSSTRESN>82.56</VSSTRESN>
    <VSSTRESU>kg</VSSTRESU>
    <VSSTAT/>
    <VSLOC/>
    <VSLOBXFL/>
    <VSREPNUM/>
    <VISITNUM>5</VISITNUM>
    <VISIT>WEEK 4</VISIT>
    <EPOCH>TREATMENT</EPOCH>
    <VSDTC>2013-09-24</VSDTC>
    <VSDY>27</VSDY>
  </row>
  <row>
    <index>193</index>
    <STUDYID>CDISCPILOT01</STUDYID>
    <DOMAIN>VS</DOMAIN>
    <USUBJID>CDISC003</USUBJID>
    <VSSEQ>96</VSSEQ>
    <VSTESTCD>WEIGHT</VSTESTCD>
    <VSTEST>Weight</VSTEST>
    <VSPOS/>
    <VSORRES>178.0</VSORRES>
    <VSORRESU>LB</VSORRESU>
    <VSSTRESC>80.74</VSSTRESC>
    <VSSTRESN>80.74</VSSTRESN>
    <VSSTRESU>kg</VSSTRESU>
    <VSSTAT/>
    <VSLOC/>
    <VSLOBXFL/>
    <VSREPNUM/>
    <VISITNUM>7</VISITNUM>
    <VISIT>WEEK 6</VISIT>
    <EPOCH>TREATMENT</EPOCH>
    <VSDTC>2013-10-08</VSDTC>
    <VSDY>41</VSDY>
  </row>
  <row>
    <index>194</index>
    <STUDYID>CDISCPILOT01</STUDYID>
    <DOMAIN>VS</DOMAIN>
    <USUBJID>CDISC003</USUBJID>
    <VSSEQ>97</VSSEQ>
    <VSTESTCD>WEIGHT</VSTESTCD>
    <VSTEST>Weight</VSTEST>
    <VSPOS/>
    <VSORRES>181.0</VSORRES>
    <VSORRESU>LB</VSORRESU>
    <VSSTRESC>82.1</VSSTRESC>
    <VSSTRESN>82.1</VSSTRESN>
    <VSSTRESU>kg</VSSTRESU>
    <VSSTAT/>
    <VSLOC/>
    <VSLOBXFL/>
    <VSREPNUM/>
    <VISITNUM>8</VISITNUM>
    <VISIT>WEEK 8</VISIT>
    <EPOCH>TREATMENT</EPOCH>
    <VSDTC>2013-10-22</VSDTC>
    <VSDY>55</VSDY>
  </row>
  <row>
    <index>195</index>
    <STUDYID>CDISCPILOT01</STUDYID>
    <DOMAIN>VS</DOMAIN>
    <USUBJID>CDISC003</USUBJID>
    <VSSEQ>98</VSSEQ>
    <VSTESTCD>WEIGHT</VSTESTCD>
    <VSTEST>Weight</VSTEST>
    <VSPOS/>
    <VSORRES>181.0</VSORRES>
    <VSORRESU>LB</VSORRESU>
    <VSSTRESC>82.1</VSSTRESC>
    <VSSTRESN>82.1</VSSTRESN>
    <VSSTRESU>kg</VSSTRESU>
    <VSSTAT/>
    <VSLOC/>
    <VSLOBXFL/>
    <VSREPNUM/>
    <VISITNUM>9</VISITNUM>
    <VISIT>WEEK 12</VISIT>
    <EPOCH>TREATMENT</EPOCH>
    <VSDTC>2013-11-05</VSDTC>
    <VSDY>69</VSDY>
  </row>
  <row>
    <index>196</index>
    <STUDYID>CDISCPILOT01</STUDYID>
    <DOMAIN>VS</DOMAIN>
    <USUBJID>CDISC004</USUBJID>
    <VSSEQ>1</VSSEQ>
    <VSTESTCD>DIABP</VSTESTCD>
    <VSTEST>Diastolic Blood Pressure</VSTEST>
    <VSPOS>SUPINE</VSPOS>
    <VSORRES>47</VSORRES>
    <VSORRESU>mmHg</VSORRESU>
    <VSSTRESC>47</VSSTRESC>
    <VSSTRESN>47.0</VSSTRESN>
    <VSSTRESU>mmHg</VSSTRESU>
    <VSSTAT/>
    <VSLOC/>
    <VSLOBXFL/>
    <VSREPNUM>1.0</VSREPNUM>
    <VISITNUM>1</VISITNUM>
    <VISIT>SCREENING 1</VISIT>
    <EPOCH>SCREENING</EPOCH>
    <VSDTC>2013-10-01</VSDTC>
    <VSDY>-7</VSDY>
  </row>
  <row>
    <index>197</index>
    <STUDYID>CDISCPILOT01</STUDYID>
    <DOMAIN>VS</DOMAIN>
    <USUBJID>CDISC004</USUBJID>
    <VSSEQ>2</VSSEQ>
    <VSTESTCD>DIABP</VSTESTCD>
    <VSTEST>Diastolic Blood Pressure</VSTEST>
    <VSPOS>STANDING</VSPOS>
    <VSORRES>55</VSORRES>
    <VSORRESU>mmHg</VSORRESU>
    <VSSTRESC>55</VSSTRESC>
    <VSSTRESN>55.0</VSSTRESN>
    <VSSTRESU>mmHg</VSSTRESU>
    <VSSTAT/>
    <VSLOC/>
    <VSLOBXFL/>
    <VSREPNUM>2.0</VSREPNUM>
    <VISITNUM>1</VISITNUM>
    <VISIT>SCREENING 1</VISIT>
    <EPOCH>SCREENING</EPOCH>
    <VSDTC>2013-10-01</VSDTC>
    <VSDY>-7</VSDY>
  </row>
  <row>
    <index>198</index>
    <STUDYID>CDISCPILOT01</STUDYID>
    <DOMAIN>VS</DOMAIN>
    <USUBJID>CDISC004</USUBJID>
    <VSSEQ>3</VSSEQ>
    <VSTESTCD>DIABP</VSTESTCD>
    <VSTEST>Diastolic Blood Pressure</VSTEST>
    <VSPOS>STANDING</VSPOS>
    <VSORRES>56</VSORRES>
    <VSORRESU>mmHg</VSORRESU>
    <VSSTRESC>56</VSSTRESC>
    <VSSTRESN>56.0</VSSTRESN>
    <VSSTRESU>mmHg</VSSTRESU>
    <VSSTAT/>
    <VSLOC/>
    <VSLOBXFL/>
    <VSREPNUM>3.0</VSREPNUM>
    <VISITNUM>1</VISITNUM>
    <VISIT>SCREENING 1</VISIT>
    <EPOCH>SCREENING</EPOCH>
    <VSDTC>2013-10-01</VSDTC>
    <VSDY>-7</VSDY>
  </row>
  <row>
    <index>199</index>
    <STUDYID>CDISCPILOT01</STUDYID>
    <DOMAIN>VS</DOMAIN>
    <USUBJID>CDISC004</USUBJID>
    <VSSEQ>4</VSSEQ>
    <VSTESTCD>DIABP</VSTESTCD>
    <VSTEST>Diastolic Blood Pressure</VSTEST>
    <VSPOS>SUPINE</VSPOS>
    <VSORRES>56</VSORRES>
    <VSORRESU>mmHg</VSORRESU>
    <VSSTRESC>56</VSSTRESC>
    <VSSTRESN>56.0</VSSTRESN>
    <VSSTRESU>mmHg</VSSTRESU>
    <VSSTAT/>
    <VSLOC/>
    <VSLOBXFL/>
    <VSREPNUM>1.0</VSREPNUM>
    <VISITNUM>2</VISITNUM>
    <VISIT>SCREENING 2</VISIT>
    <EPOCH>SCREENING</EPOCH>
    <VSDTC>2013-10-06</VSDTC>
    <VSDY>-2</VSDY>
  </row>
  <row>
    <index>200</index>
    <STUDYID>CDISCPILOT01</STUDYID>
    <DOMAIN>VS</DOMAIN>
    <USUBJID>CDISC004</USUBJID>
    <VSSEQ>5</VSSEQ>
    <VSTESTCD>DIABP</VSTESTCD>
    <VSTEST>Diastolic Blood Pressure</VSTEST>
    <VSPOS>STANDING</VSPOS>
    <VSORRES>56</VSORRES>
    <VSORRESU>mmHg</VSORRESU>
    <VSSTRESC>56</VSSTRESC>
    <VSSTRESN>56.0</VSSTRESN>
    <VSSTRESU>mmHg</VSSTRESU>
    <VSSTAT/>
    <VSLOC/>
    <VSLOBXFL/>
    <VSREPNUM>2.0</VSREPNUM>
    <VISITNUM>2</VISITNUM>
    <VISIT>SCREENING 2</VISIT>
    <EPOCH>SCREENING</EPOCH>
    <VSDTC>2013-10-06</VSDTC>
    <VSDY>-2</VSDY>
  </row>
  <row>
    <index>201</index>
    <STUDYID>CDISCPILOT01</STUDYID>
    <DOMAIN>VS</DOMAIN>
    <USUBJID>CDISC004</USUBJID>
    <VSSEQ>6</VSSEQ>
    <VSTESTCD>DIABP</VSTESTCD>
    <VSTEST>Diastolic Blood Pressure</VSTEST>
    <VSPOS>STANDING</VSPOS>
    <VSORRES>57</VSORRES>
    <VSORRESU>mmHg</VSORRESU>
    <VSSTRESC>57</VSSTRESC>
    <VSSTRESN>57.0</VSSTRESN>
    <VSSTRESU>mmHg</VSSTRESU>
    <VSSTAT/>
    <VSLOC/>
    <VSLOBXFL/>
    <VSREPNUM>3.0</VSREPNUM>
    <VISITNUM>2</VISITNUM>
    <VISIT>SCREENING 2</VISIT>
    <EPOCH>SCREENING</EPOCH>
    <VSDTC>2013-10-06</VSDTC>
    <VSDY>-2</VSDY>
  </row>
  <row>
    <index>202</index>
    <STUDYID>CDISCPILOT01</STUDYID>
    <DOMAIN>VS</DOMAIN>
    <USUBJID>CDISC004</USUBJID>
    <VSSEQ>7</VSSEQ>
    <VSTESTCD>DIABP</VSTESTCD>
    <VSTEST>Diastolic Blood Pressure</VSTEST>
    <VSPOS>SUPINE</VSPOS>
    <VSORRES>58</VSORRES>
    <VSORRESU>mmHg</VSORRESU>
    <VSSTRESC>58</VSSTRESC>
    <VSSTRESN>58.0</VSSTRESN>
    <VSSTRESU>mmHg</VSSTRESU>
    <VSSTAT/>
    <VSLOC/>
    <VSLOBXFL/>
    <VSREPNUM>1.0</VSREPNUM>
    <VISITNUM>3</VISITNUM>
    <VISIT>BASELINE</VISIT>
    <EPOCH>SCREENING</EPOCH>
    <VSDTC>2013-10-08</VSDTC>
    <VSDY>1</VSDY>
  </row>
  <row>
    <index>203</index>
    <STUDYID>CDISCPILOT01</STUDYID>
    <DOMAIN>VS</DOMAIN>
    <USUBJID>CDISC004</USUBJID>
    <VSSEQ>8</VSSEQ>
    <VSTESTCD>DIABP</VSTESTCD>
    <VSTEST>Diastolic Blood Pressure</VSTEST>
    <VSPOS>STANDING</VSPOS>
    <VSORRES>52</VSORRES>
    <VSORRESU>mmHg</VSORRESU>
    <VSSTRESC>52</VSSTRESC>
    <VSSTRESN>52.0</VSSTRESN>
    <VSSTRESU>mmHg</VSSTRESU>
    <VSSTAT/>
    <VSLOC/>
    <VSLOBXFL/>
    <VSREPNUM>2.0</VSREPNUM>
    <VISITNUM>3</VISITNUM>
    <VISIT>BASELINE</VISIT>
    <EPOCH>SCREENING</EPOCH>
    <VSDTC>2013-10-08</VSDTC>
    <VSDY>1</VSDY>
  </row>
  <row>
    <index>204</index>
    <STUDYID>CDISCPILOT01</STUDYID>
    <DOMAIN>VS</DOMAIN>
    <USUBJID>CDISC004</USUBJID>
    <VSSEQ>9</VSSEQ>
    <VSTESTCD>DIABP</VSTESTCD>
    <VSTEST>Diastolic Blood Pressure</VSTEST>
    <VSPOS>STANDING</VSPOS>
    <VSORRES>54</VSORRES>
    <VSORRESU>mmHg</VSORRESU>
    <VSSTRESC>54</VSSTRESC>
    <VSSTRESN>54.0</VSSTRESN>
    <VSSTRESU>mmHg</VSSTRESU>
    <VSSTAT/>
    <VSLOC/>
    <VSLOBXFL>Y</VSLOBXFL>
    <VSREPNUM>3.0</VSREPNUM>
    <VISITNUM>3</VISITNUM>
    <VISIT>BASELINE</VISIT>
    <EPOCH>SCREENING</EPOCH>
    <VSDTC>2013-10-08</VSDTC>
    <VSDY>1</VSDY>
  </row>
  <row>
    <index>205</index>
    <STUDYID>CDISCPILOT01</STUDYID>
    <DOMAIN>VS</DOMAIN>
    <USUBJID>CDISC004</USUBJID>
    <VSSEQ>10</VSSEQ>
    <VSTESTCD>DIABP</VSTESTCD>
    <VSTEST>Diastolic Blood Pressure</VSTEST>
    <VSPOS>SUPINE</VSPOS>
    <VSORRES>52</VSORRES>
    <VSORRESU>mmHg</VSORRESU>
    <VSSTRESC>52</VSSTRESC>
    <VSSTRESN>52.0</VSSTRESN>
    <VSSTRESU>mmHg</VSSTRESU>
    <VSSTAT/>
    <VSLOC/>
    <VSLOBXFL/>
    <VSREPNUM>1.0</VSREPNUM>
    <VISITNUM>4</VISITNUM>
    <VISIT>WEEK 2</VISIT>
    <EPOCH>TREATMENT</EPOCH>
    <VSDTC>2013-10-24</VSDTC>
    <VSDY>17</VSDY>
  </row>
  <row>
    <index>206</index>
    <STUDYID>CDISCPILOT01</STUDYID>
    <DOMAIN>VS</DOMAIN>
    <USUBJID>CDISC004</USUBJID>
    <VSSEQ>11</VSSEQ>
    <VSTESTCD>DIABP</VSTESTCD>
    <VSTEST>Diastolic Blood Pressure</VSTEST>
    <VSPOS>STANDING</VSPOS>
    <VSORRES>56</VSORRES>
    <VSORRESU>mmHg</VSORRESU>
    <VSSTRESC>56</VSSTRESC>
    <VSSTRESN>56.0</VSSTRESN>
    <VSSTRESU>mmHg</VSSTRESU>
    <VSSTAT/>
    <VSLOC/>
    <VSLOBXFL/>
    <VSREPNUM>2.0</VSREPNUM>
    <VISITNUM>4</VISITNUM>
    <VISIT>WEEK 2</VISIT>
    <EPOCH>TREATMENT</EPOCH>
    <VSDTC>2013-10-24</VSDTC>
    <VSDY>17</VSDY>
  </row>
  <row>
    <index>207</index>
    <STUDYID>CDISCPILOT01</STUDYID>
    <DOMAIN>VS</DOMAIN>
    <USUBJID>CDISC004</USUBJID>
    <VSSEQ>12</VSSEQ>
    <VSTESTCD>DIABP</VSTESTCD>
    <VSTEST>Diastolic Blood Pressure</VSTEST>
    <VSPOS>STANDING</VSPOS>
    <VSORRES>58</VSORRES>
    <VSORRESU>mmHg</VSORRESU>
    <VSSTRESC>58</VSSTRESC>
    <VSSTRESN>58.0</VSSTRESN>
    <VSSTRESU>mmHg</VSSTRESU>
    <VSSTAT/>
    <VSLOC/>
    <VSLOBXFL/>
    <VSREPNUM>3.0</VSREPNUM>
    <VISITNUM>4</VISITNUM>
    <VISIT>WEEK 2</VISIT>
    <EPOCH>TREATMENT</EPOCH>
    <VSDTC>2013-10-24</VSDTC>
    <VSDY>17</VSDY>
  </row>
  <row>
    <index>208</index>
    <STUDYID>CDISCPILOT01</STUDYID>
    <DOMAIN>VS</DOMAIN>
    <USUBJID>CDISC004</USUBJID>
    <VSSEQ>13</VSSEQ>
    <VSTESTCD>DIABP</VSTESTCD>
    <VSTEST>Diastolic Blood Pressure</VSTEST>
    <VSPOS>SUPINE</VSPOS>
    <VSORRES>41</VSORRES>
    <VSORRESU>mmHg</VSORRESU>
    <VSSTRESC>41</VSSTRESC>
    <VSSTRESN>41.0</VSSTRESN>
    <VSSTRESU>mmHg</VSSTRESU>
    <VSSTAT/>
    <VSLOC/>
    <VSLOBXFL/>
    <VSREPNUM>1.0</VSREPNUM>
    <VISITNUM>5</VISITNUM>
    <VISIT>WEEK 4</VISIT>
    <EPOCH>TREATMENT</EPOCH>
    <VSDTC>2013-11-08</VSDTC>
    <VSDY>32</VSDY>
  </row>
  <row>
    <index>209</index>
    <STUDYID>CDISCPILOT01</STUDYID>
    <DOMAIN>VS</DOMAIN>
    <USUBJID>CDISC004</USUBJID>
    <VSSEQ>14</VSSEQ>
    <VSTESTCD>DIABP</VSTESTCD>
    <VSTEST>Diastolic Blood Pressure</VSTEST>
    <VSPOS>STANDING</VSPOS>
    <VSORRES>39</VSORRES>
    <VSORRESU>mmHg</VSORRESU>
    <VSSTRESC>39</VSSTRESC>
    <VSSTRESN>39.0</VSSTRESN>
    <VSSTRESU>mmHg</VSSTRESU>
    <VSSTAT/>
    <VSLOC/>
    <VSLOBXFL/>
    <VSREPNUM>2.0</VSREPNUM>
    <VISITNUM>5</VISITNUM>
    <VISIT>WEEK 4</VISIT>
    <EPOCH>TREATMENT</EPOCH>
    <VSDTC>2013-11-08</VSDTC>
    <VSDY>32</VSDY>
  </row>
  <row>
    <index>210</index>
    <STUDYID>CDISCPILOT01</STUDYID>
    <DOMAIN>VS</DOMAIN>
    <USUBJID>CDISC004</USUBJID>
    <VSSEQ>15</VSSEQ>
    <VSTESTCD>DIABP</VSTESTCD>
    <VSTEST>Diastolic Blood Pressure</VSTEST>
    <VSPOS>STANDING</VSPOS>
    <VSORRES>50</VSORRES>
    <VSORRESU>mmHg</VSORRESU>
    <VSSTRESC>50</VSSTRESC>
    <VSSTRESN>50.0</VSSTRESN>
    <VSSTRESU>mmHg</VSSTRESU>
    <VSSTAT/>
    <VSLOC/>
    <VSLOBXFL/>
    <VSREPNUM>3.0</VSREPNUM>
    <VISITNUM>5</VISITNUM>
    <VISIT>WEEK 4</VISIT>
    <EPOCH>TREATMENT</EPOCH>
    <VSDTC>2013-11-08</VSDTC>
    <VSDY>32</VSDY>
  </row>
  <row>
    <index>211</index>
    <STUDYID>CDISCPILOT01</STUDYID>
    <DOMAIN>VS</DOMAIN>
    <USUBJID>CDISC004</USUBJID>
    <VSSEQ>16</VSSEQ>
    <VSTESTCD>DIABP</VSTESTCD>
    <VSTEST>Diastolic Blood Pressure</VSTEST>
    <VSPOS>SUPINE</VSPOS>
    <VSORRES>48</VSORRES>
    <VSORRESU>mmHg</VSORRESU>
    <VSSTRESC>48</VSSTRESC>
    <VSSTRESN>48.0</VSSTRESN>
    <VSSTRESU>mmHg</VSSTRESU>
    <VSSTAT/>
    <VSLOC/>
    <VSLOBXFL/>
    <VSREPNUM>1.0</VSREPNUM>
    <VISITNUM>7</VISITNUM>
    <VISIT>WEEK 6</VISIT>
    <EPOCH>TREATMENT</EPOCH>
    <VSDTC>2013-11-19</VSDTC>
    <VSDY>43</VSDY>
  </row>
  <row>
    <index>212</index>
    <STUDYID>CDISCPILOT01</STUDYID>
    <DOMAIN>VS</DOMAIN>
    <USUBJID>CDISC004</USUBJID>
    <VSSEQ>17</VSSEQ>
    <VSTESTCD>DIABP</VSTESTCD>
    <VSTEST>Diastolic Blood Pressure</VSTEST>
    <VSPOS>STANDING</VSPOS>
    <VSORRES>52</VSORRES>
    <VSORRESU>mmHg</VSORRESU>
    <VSSTRESC>52</VSSTRESC>
    <VSSTRESN>52.0</VSSTRESN>
    <VSSTRESU>mmHg</VSSTRESU>
    <VSSTAT/>
    <VSLOC/>
    <VSLOBXFL/>
    <VSREPNUM>2.0</VSREPNUM>
    <VISITNUM>7</VISITNUM>
    <VISIT>WEEK 6</VISIT>
    <EPOCH>TREATMENT</EPOCH>
    <VSDTC>2013-11-19</VSDTC>
    <VSDY>43</VSDY>
  </row>
  <row>
    <index>213</index>
    <STUDYID>CDISCPILOT01</STUDYID>
    <DOMAIN>VS</DOMAIN>
    <USUBJID>CDISC004</USUBJID>
    <VSSEQ>18</VSSEQ>
    <VSTESTCD>DIABP</VSTESTCD>
    <VSTEST>Diastolic Blood Pressure</VSTEST>
    <VSPOS>STANDING</VSPOS>
    <VSORRES>54</VSORRES>
    <VSORRESU>mmHg</VSORRESU>
    <VSSTRESC>54</VSSTRESC>
    <VSSTRESN>54.0</VSSTRESN>
    <VSSTRESU>mmHg</VSSTRESU>
    <VSSTAT/>
    <VSLOC/>
    <VSLOBXFL/>
    <VSREPNUM>3.0</VSREPNUM>
    <VISITNUM>7</VISITNUM>
    <VISIT>WEEK 6</VISIT>
    <EPOCH>TREATMENT</EPOCH>
    <VSDTC>2013-11-19</VSDTC>
    <VSDY>43</VSDY>
  </row>
  <row>
    <index>214</index>
    <STUDYID>CDISCPILOT01</STUDYID>
    <DOMAIN>VS</DOMAIN>
    <USUBJID>CDISC004</USUBJID>
    <VSSEQ>19</VSSEQ>
    <VSTESTCD>DIABP</VSTESTCD>
    <VSTEST>Diastolic Blood Pressure</VSTEST>
    <VSPOS>SUPINE</VSPOS>
    <VSORRES>49</VSORRES>
    <VSORRESU>mmHg</VSORRESU>
    <VSSTRESC>49</VSSTRESC>
    <VSSTRESN>49.0</VSSTRESN>
    <VSSTRESU>mmHg</VSSTRESU>
    <VSSTAT/>
    <VSLOC/>
    <VSLOBXFL/>
    <VSREPNUM>1.0</VSREPNUM>
    <VISITNUM>8</VISITNUM>
    <VISIT>WEEK 8</VISIT>
    <EPOCH>TREATMENT</EPOCH>
    <VSDTC>2013-12-03</VSDTC>
    <VSDY>57</VSDY>
  </row>
  <row>
    <index>215</index>
    <STUDYID>CDISCPILOT01</STUDYID>
    <DOMAIN>VS</DOMAIN>
    <USUBJID>CDISC004</USUBJID>
    <VSSEQ>20</VSSEQ>
    <VSTESTCD>DIABP</VSTESTCD>
    <VSTEST>Diastolic Blood Pressure</VSTEST>
    <VSPOS>STANDING</VSPOS>
    <VSORRES>52</VSORRES>
    <VSORRESU>mmHg</VSORRESU>
    <VSSTRESC>52</VSSTRESC>
    <VSSTRESN>52.0</VSSTRESN>
    <VSSTRESU>mmHg</VSSTRESU>
    <VSSTAT/>
    <VSLOC/>
    <VSLOBXFL/>
    <VSREPNUM>2.0</VSREPNUM>
    <VISITNUM>8</VISITNUM>
    <VISIT>WEEK 8</VISIT>
    <EPOCH>TREATMENT</EPOCH>
    <VSDTC>2013-12-03</VSDTC>
    <VSDY>57</VSDY>
  </row>
  <row>
    <index>216</index>
    <STUDYID>CDISCPILOT01</STUDYID>
    <DOMAIN>VS</DOMAIN>
    <USUBJID>CDISC004</USUBJID>
    <VSSEQ>21</VSSEQ>
    <VSTESTCD>DIABP</VSTESTCD>
    <VSTEST>Diastolic Blood Pressure</VSTEST>
    <VSPOS>STANDING</VSPOS>
    <VSORRES>57</VSORRES>
    <VSORRESU>mmHg</VSORRESU>
    <VSSTRESC>57</VSSTRESC>
    <VSSTRESN>57.0</VSSTRESN>
    <VSSTRESU>mmHg</VSSTRESU>
    <VSSTAT/>
    <VSLOC/>
    <VSLOBXFL/>
    <VSREPNUM>3.0</VSREPNUM>
    <VISITNUM>8</VISITNUM>
    <VISIT>WEEK 8</VISIT>
    <EPOCH>TREATMENT</EPOCH>
    <VSDTC>2013-12-03</VSDTC>
    <VSDY>57</VSDY>
  </row>
  <row>
    <index>217</index>
    <STUDYID>CDISCPILOT01</STUDYID>
    <DOMAIN>VS</DOMAIN>
    <USUBJID>CDISC004</USUBJID>
    <VSSEQ>22</VSSEQ>
    <VSTESTCD>DIABP</VSTESTCD>
    <VSTEST>Diastolic Blood Pressure</VSTEST>
    <VSPOS>SUPINE</VSPOS>
    <VSORRES>55</VSORRES>
    <VSORRESU>mmHg</VSORRESU>
    <VSSTRESC>55</VSSTRESC>
    <VSSTRESN>55.0</VSSTRESN>
    <VSSTRESU>mmHg</VSSTRESU>
    <VSSTAT/>
    <VSLOC/>
    <VSLOBXFL/>
    <VSREPNUM>1.0</VSREPNUM>
    <VISITNUM>9</VISITNUM>
    <VISIT>WEEK 12</VISIT>
    <EPOCH>TREATMENT</EPOCH>
    <VSDTC>2013-12-31</VSDTC>
    <VSDY>85</VSDY>
  </row>
  <row>
    <index>218</index>
    <STUDYID>CDISCPILOT01</STUDYID>
    <DOMAIN>VS</DOMAIN>
    <USUBJID>CDISC004</USUBJID>
    <VSSEQ>23</VSSEQ>
    <VSTESTCD>DIABP</VSTESTCD>
    <VSTEST>Diastolic Blood Pressure</VSTEST>
    <VSPOS>STANDING</VSPOS>
    <VSORRES>49</VSORRES>
    <VSORRESU>mmHg</VSORRESU>
    <VSSTRESC>49</VSSTRESC>
    <VSSTRESN>49.0</VSSTRESN>
    <VSSTRESU>mmHg</VSSTRESU>
    <VSSTAT/>
    <VSLOC/>
    <VSLOBXFL/>
    <VSREPNUM>2.0</VSREPNUM>
    <VISITNUM>9</VISITNUM>
    <VISIT>WEEK 12</VISIT>
    <EPOCH>TREATMENT</EPOCH>
    <VSDTC>2013-12-31</VSDTC>
    <VSDY>85</VSDY>
  </row>
  <row>
    <index>219</index>
    <STUDYID>CDISCPILOT01</STUDYID>
    <DOMAIN>VS</DOMAIN>
    <USUBJID>CDISC004</USUBJID>
    <VSSEQ>24</VSSEQ>
    <VSTESTCD>DIABP</VSTESTCD>
    <VSTEST>Diastolic Blood Pressure</VSTEST>
    <VSPOS>STANDING</VSPOS>
    <VSORRES>57</VSORRES>
    <VSORRESU>mmHg</VSORRESU>
    <VSSTRESC>57</VSSTRESC>
    <VSSTRESN>57.0</VSSTRESN>
    <VSSTRESU>mmHg</VSSTRESU>
    <VSSTAT/>
    <VSLOC/>
    <VSLOBXFL/>
    <VSREPNUM>3.0</VSREPNUM>
    <VISITNUM>9</VISITNUM>
    <VISIT>WEEK 12</VISIT>
    <EPOCH>TREATMENT</EPOCH>
    <VSDTC>2013-12-31</VSDTC>
    <VSDY>85</VSDY>
  </row>
  <row>
    <index>220</index>
    <STUDYID>CDISCPILOT01</STUDYID>
    <DOMAIN>VS</DOMAIN>
    <USUBJID>CDISC004</USUBJID>
    <VSSEQ>25</VSSEQ>
    <VSTESTCD>DIABP</VSTESTCD>
    <VSTEST>Diastolic Blood Pressure</VSTEST>
    <VSPOS>SUPINE</VSPOS>
    <VSORRES>52</VSORRES>
    <VSORRESU>mmHg</VSORRESU>
    <VSSTRESC>52</VSSTRESC>
    <VSSTRESN>52.0</VSSTRESN>
    <VSSTRESU>mmHg</VSSTRESU>
    <VSSTAT/>
    <VSLOC/>
    <VSLOBXFL/>
    <VSREPNUM>1.0</VSREPNUM>
    <VISITNUM>10</VISITNUM>
    <VISIT>WEEK 16</VISIT>
    <EPOCH>TREATMENT</EPOCH>
    <VSDTC>2014-01-27</VSDTC>
    <VSDY>112</VSDY>
  </row>
  <row>
    <index>221</index>
    <STUDYID>CDISCPILOT01</STUDYID>
    <DOMAIN>VS</DOMAIN>
    <USUBJID>CDISC004</USUBJID>
    <VSSEQ>26</VSSEQ>
    <VSTESTCD>DIABP</VSTESTCD>
    <VSTEST>Diastolic Blood Pressure</VSTEST>
    <VSPOS>STANDING</VSPOS>
    <VSORRES>49</VSORRES>
    <VSORRESU>mmHg</VSORRESU>
    <VSSTRESC>49</VSSTRESC>
    <VSSTRESN>49.0</VSSTRESN>
    <VSSTRESU>mmHg</VSSTRESU>
    <VSSTAT/>
    <VSLOC/>
    <VSLOBXFL/>
    <VSREPNUM>2.0</VSREPNUM>
    <VISITNUM>10</VISITNUM>
    <VISIT>WEEK 16</VISIT>
    <EPOCH>TREATMENT</EPOCH>
    <VSDTC>2014-01-27</VSDTC>
    <VSDY>112</VSDY>
  </row>
  <row>
    <index>222</index>
    <STUDYID>CDISCPILOT01</STUDYID>
    <DOMAIN>VS</DOMAIN>
    <USUBJID>CDISC004</USUBJID>
    <VSSEQ>27</VSSEQ>
    <VSTESTCD>DIABP</VSTESTCD>
    <VSTEST>Diastolic Blood Pressure</VSTEST>
    <VSPOS>STANDING</VSPOS>
    <VSORRES>55</VSORRES>
    <VSORRESU>mmHg</VSORRESU>
    <VSSTRESC>55</VSSTRESC>
    <VSSTRESN>55.0</VSSTRESN>
    <VSSTRESU>mmHg</VSSTRESU>
    <VSSTAT/>
    <VSLOC/>
    <VSLOBXFL/>
    <VSREPNUM>3.0</VSREPNUM>
    <VISITNUM>10</VISITNUM>
    <VISIT>WEEK 16</VISIT>
    <EPOCH>TREATMENT</EPOCH>
    <VSDTC>2014-01-27</VSDTC>
    <VSDY>112</VSDY>
  </row>
  <row>
    <index>223</index>
    <STUDYID>CDISCPILOT01</STUDYID>
    <DOMAIN>VS</DOMAIN>
    <USUBJID>CDISC004</USUBJID>
    <VSSEQ>28</VSSEQ>
    <VSTESTCD>DIABP</VSTESTCD>
    <VSTEST>Diastolic Blood Pressure</VSTEST>
    <VSPOS>SUPINE</VSPOS>
    <VSORRES>54</VSORRES>
    <VSORRESU>mmHg</VSORRESU>
    <VSSTRESC>54</VSSTRESC>
    <VSSTRESN>54.0</VSSTRESN>
    <VSSTRESU>mmHg</VSSTRESU>
    <VSSTAT/>
    <VSLOC/>
    <VSLOBXFL/>
    <VSREPNUM>1.0</VSREPNUM>
    <VISITNUM>11</VISITNUM>
    <VISIT>WEEK 20</VISIT>
    <EPOCH>TREATMENT</EPOCH>
    <VSDTC>2014-02-25</VSDTC>
    <VSDY>141</VSDY>
  </row>
  <row>
    <index>224</index>
    <STUDYID>CDISCPILOT01</STUDYID>
    <DOMAIN>VS</DOMAIN>
    <USUBJID>CDISC004</USUBJID>
    <VSSEQ>29</VSSEQ>
    <VSTESTCD>DIABP</VSTESTCD>
    <VSTEST>Diastolic Blood Pressure</VSTEST>
    <VSPOS>STANDING</VSPOS>
    <VSORRES>48</VSORRES>
    <VSORRESU>mmHg</VSORRESU>
    <VSSTRESC>48</VSSTRESC>
    <VSSTRESN>48.0</VSSTRESN>
    <VSSTRESU>mmHg</VSSTRESU>
    <VSSTAT/>
    <VSLOC/>
    <VSLOBXFL/>
    <VSREPNUM>2.0</VSREPNUM>
    <VISITNUM>11</VISITNUM>
    <VISIT>WEEK 20</VISIT>
    <EPOCH>TREATMENT</EPOCH>
    <VSDTC>2014-02-25</VSDTC>
    <VSDY>141</VSDY>
  </row>
  <row>
    <index>225</index>
    <STUDYID>CDISCPILOT01</STUDYID>
    <DOMAIN>VS</DOMAIN>
    <USUBJID>CDISC004</USUBJID>
    <VSSEQ>30</VSSEQ>
    <VSTESTCD>DIABP</VSTESTCD>
    <VSTEST>Diastolic Blood Pressure</VSTEST>
    <VSPOS>STANDING</VSPOS>
    <VSORRES>56</VSORRES>
    <VSORRESU>mmHg</VSORRESU>
    <VSSTRESC>56</VSSTRESC>
    <VSSTRESN>56.0</VSSTRESN>
    <VSSTRESU>mmHg</VSSTRESU>
    <VSSTAT/>
    <VSLOC/>
    <VSLOBXFL/>
    <VSREPNUM>3.0</VSREPNUM>
    <VISITNUM>11</VISITNUM>
    <VISIT>WEEK 20</VISIT>
    <EPOCH>TREATMENT</EPOCH>
    <VSDTC>2014-02-25</VSDTC>
    <VSDY>141</VSDY>
  </row>
  <row>
    <index>226</index>
    <STUDYID>CDISCPILOT01</STUDYID>
    <DOMAIN>VS</DOMAIN>
    <USUBJID>CDISC004</USUBJID>
    <VSSEQ>31</VSSEQ>
    <VSTESTCD>DIABP</VSTESTCD>
    <VSTEST>Diastolic Blood Pressure</VSTEST>
    <VSPOS>SUPINE</VSPOS>
    <VSORRES>48</VSORRES>
    <VSORRESU>mmHg</VSORRESU>
    <VSSTRESC>48</VSSTRESC>
    <VSSTRESN>48.0</VSSTRESN>
    <VSSTRESU>mmHg</VSSTRESU>
    <VSSTAT/>
    <VSLOC/>
    <VSLOBXFL/>
    <VSREPNUM>1.0</VSREPNUM>
    <VISITNUM>12</VISITNUM>
    <VISIT>WEEK 24</VISIT>
    <EPOCH>TREATMENT</EPOCH>
    <VSDTC>2014-03-18</VSDTC>
    <VSDY>162</VSDY>
  </row>
  <row>
    <index>227</index>
    <STUDYID>CDISCPILOT01</STUDYID>
    <DOMAIN>VS</DOMAIN>
    <USUBJID>CDISC004</USUBJID>
    <VSSEQ>32</VSSEQ>
    <VSTESTCD>DIABP</VSTESTCD>
    <VSTEST>Diastolic Blood Pressure</VSTEST>
    <VSPOS>STANDING</VSPOS>
    <VSORRES>56</VSORRES>
    <VSORRESU>mmHg</VSORRESU>
    <VSSTRESC>56</VSSTRESC>
    <VSSTRESN>56.0</VSSTRESN>
    <VSSTRESU>mmHg</VSSTRESU>
    <VSSTAT/>
    <VSLOC/>
    <VSLOBXFL/>
    <VSREPNUM>2.0</VSREPNUM>
    <VISITNUM>12</VISITNUM>
    <VISIT>WEEK 24</VISIT>
    <EPOCH>TREATMENT</EPOCH>
    <VSDTC>2014-03-18</VSDTC>
    <VSDY>162</VSDY>
  </row>
  <row>
    <index>228</index>
    <STUDYID>CDISCPILOT01</STUDYID>
    <DOMAIN>VS</DOMAIN>
    <USUBJID>CDISC004</USUBJID>
    <VSSEQ>33</VSSEQ>
    <VSTESTCD>DIABP</VSTESTCD>
    <VSTEST>Diastolic Blood Pressure</VSTEST>
    <VSPOS>STANDING</VSPOS>
    <VSORRES>51</VSORRES>
    <VSORRESU>mmHg</VSORRESU>
    <VSSTRESC>51</VSSTRESC>
    <VSSTRESN>51.0</VSSTRESN>
    <VSSTRESU>mmHg</VSSTRESU>
    <VSSTAT/>
    <VSLOC/>
    <VSLOBXFL/>
    <VSREPNUM>3.0</VSREPNUM>
    <VISITNUM>12</VISITNUM>
    <VISIT>WEEK 24</VISIT>
    <EPOCH>TREATMENT</EPOCH>
    <VSDTC>2014-03-18</VSDTC>
    <VSDY>162</VSDY>
  </row>
  <row>
    <index>229</index>
    <STUDYID>CDISCPILOT01</STUDYID>
    <DOMAIN>VS</DOMAIN>
    <USUBJID>CDISC004</USUBJID>
    <VSSEQ>34</VSSEQ>
    <VSTESTCD>HEIGHT</VSTESTCD>
    <VSTEST>Height</VSTEST>
    <VSPOS/>
    <VSORRES>68.5</VSORRES>
    <VSORRESU>in</VSORRESU>
    <VSSTRESC>173.99</VSSTRESC>
    <VSSTRESN>173.99</VSSTRESN>
    <VSSTRESU>cm</VSSTRESU>
    <VSSTAT/>
    <VSLOC/>
    <VSLOBXFL/>
    <VSREPNUM/>
    <VISITNUM>1</VISITNUM>
    <VISIT>SCREENING 1</VISIT>
    <EPOCH>SCREENING</EPOCH>
    <VSDTC>2013-10-01</VSDTC>
    <VSDY>-7</VSDY>
  </row>
  <row>
    <index>230</index>
    <STUDYID>CDISCPILOT01</STUDYID>
    <DOMAIN>VS</DOMAIN>
    <USUBJID>CDISC004</USUBJID>
    <VSSEQ>35</VSSEQ>
    <VSTESTCD>PULSE</VSTESTCD>
    <VSTEST>Pulse Rate</VSTEST>
    <VSPOS>SUPINE</VSPOS>
    <VSORRES>62</VSORRES>
    <VSORRESU>beats/min</VSORRESU>
    <VSSTRESC>62</VSSTRESC>
    <VSSTRESN>62.0</VSSTRESN>
    <VSSTRESU>beats/min</VSSTRESU>
    <VSSTAT/>
    <VSLOC/>
    <VSLOBXFL/>
    <VSREPNUM>1.0</VSREPNUM>
    <VISITNUM>1</VISITNUM>
    <VISIT>SCREENING 1</VISIT>
    <EPOCH>SCREENING</EPOCH>
    <VSDTC>2013-10-01</VSDTC>
    <VSDY>-7</VSDY>
  </row>
  <row>
    <index>231</index>
    <STUDYID>CDISCPILOT01</STUDYID>
    <DOMAIN>VS</DOMAIN>
    <USUBJID>CDISC004</USUBJID>
    <VSSEQ>36</VSSEQ>
    <VSTESTCD>PULSE</VSTESTCD>
    <VSTEST>Pulse Rate</VSTEST>
    <VSPOS>STANDING</VSPOS>
    <VSORRES>74</VSORRES>
    <VSORRESU>beats/min</VSORRESU>
    <VSSTRESC>74</VSSTRESC>
    <VSSTRESN>74.0</VSSTRESN>
    <VSSTRESU>beats/min</VSSTRESU>
    <VSSTAT/>
    <VSLOC/>
    <VSLOBXFL/>
    <VSREPNUM>2.0</VSREPNUM>
    <VISITNUM>1</VISITNUM>
    <VISIT>SCREENING 1</VISIT>
    <EPOCH>SCREENING</EPOCH>
    <VSDTC>2013-10-01</VSDTC>
    <VSDY>-7</VSDY>
  </row>
  <row>
    <index>232</index>
    <STUDYID>CDISCPILOT01</STUDYID>
    <DOMAIN>VS</DOMAIN>
    <USUBJID>CDISC004</USUBJID>
    <VSSEQ>37</VSSEQ>
    <VSTESTCD>PULSE</VSTESTCD>
    <VSTEST>Pulse Rate</VSTEST>
    <VSPOS>STANDING</VSPOS>
    <VSORRES>80</VSORRES>
    <VSORRESU>beats/min</VSORRESU>
    <VSSTRESC>80</VSSTRESC>
    <VSSTRESN>80.0</VSSTRESN>
    <VSSTRESU>beats/min</VSSTRESU>
    <VSSTAT/>
    <VSLOC/>
    <VSLOBXFL/>
    <VSREPNUM>3.0</VSREPNUM>
    <VISITNUM>1</VISITNUM>
    <VISIT>SCREENING 1</VISIT>
    <EPOCH>SCREENING</EPOCH>
    <VSDTC>2013-10-01</VSDTC>
    <VSDY>-7</VSDY>
  </row>
  <row>
    <index>233</index>
    <STUDYID>CDISCPILOT01</STUDYID>
    <DOMAIN>VS</DOMAIN>
    <USUBJID>CDISC004</USUBJID>
    <VSSEQ>38</VSSEQ>
    <VSTESTCD>PULSE</VSTESTCD>
    <VSTEST>Pulse Rate</VSTEST>
    <VSPOS>SUPINE</VSPOS>
    <VSORRES>61</VSORRES>
    <VSORRESU>beats/min</VSORRESU>
    <VSSTRESC>61</VSSTRESC>
    <VSSTRESN>61.0</VSSTRESN>
    <VSSTRESU>beats/min</VSSTRESU>
    <VSSTAT/>
    <VSLOC/>
    <VSLOBXFL/>
    <VSREPNUM>1.0</VSREPNUM>
    <VISITNUM>2</VISITNUM>
    <VISIT>SCREENING 2</VISIT>
    <EPOCH>SCREENING</EPOCH>
    <VSDTC>2013-10-06</VSDTC>
    <VSDY>-2</VSDY>
  </row>
  <row>
    <index>234</index>
    <STUDYID>CDISCPILOT01</STUDYID>
    <DOMAIN>VS</DOMAIN>
    <USUBJID>CDISC004</USUBJID>
    <VSSEQ>39</VSSEQ>
    <VSTESTCD>PULSE</VSTESTCD>
    <VSTEST>Pulse Rate</VSTEST>
    <VSPOS>STANDING</VSPOS>
    <VSORRES>71</VSORRES>
    <VSORRESU>beats/min</VSORRESU>
    <VSSTRESC>71</VSSTRESC>
    <VSSTRESN>71.0</VSSTRESN>
    <VSSTRESU>beats/min</VSSTRESU>
    <VSSTAT/>
    <VSLOC/>
    <VSLOBXFL/>
    <VSREPNUM>2.0</VSREPNUM>
    <VISITNUM>2</VISITNUM>
    <VISIT>SCREENING 2</VISIT>
    <EPOCH>SCREENING</EPOCH>
    <VSDTC>2013-10-06</VSDTC>
    <VSDY>-2</VSDY>
  </row>
  <row>
    <index>235</index>
    <STUDYID>CDISCPILOT01</STUDYID>
    <DOMAIN>VS</DOMAIN>
    <USUBJID>CDISC004</USUBJID>
    <VSSEQ>40</VSSEQ>
    <VSTESTCD>PULSE</VSTESTCD>
    <VSTEST>Pulse Rate</VSTEST>
    <VSPOS>STANDING</VSPOS>
    <VSORRES>65</VSORRES>
    <VSORRESU>beats/min</VSORRESU>
    <VSSTRESC>65</VSSTRESC>
    <VSSTRESN>65.0</VSSTRESN>
    <VSSTRESU>beats/min</VSSTRESU>
    <VSSTAT/>
    <VSLOC/>
    <VSLOBXFL/>
    <VSREPNUM>3.0</VSREPNUM>
    <VISITNUM>2</VISITNUM>
    <VISIT>SCREENING 2</VISIT>
    <EPOCH>SCREENING</EPOCH>
    <VSDTC>2013-10-06</VSDTC>
    <VSDY>-2</VSDY>
  </row>
  <row>
    <index>236</index>
    <STUDYID>CDISCPILOT01</STUDYID>
    <DOMAIN>VS</DOMAIN>
    <USUBJID>CDISC004</USUBJID>
    <VSSEQ>41</VSSEQ>
    <VSTESTCD>PULSE</VSTESTCD>
    <VSTEST>Pulse Rate</VSTEST>
    <VSPOS>SUPINE</VSPOS>
    <VSORRES>61</VSORRES>
    <VSORRESU>beats/min</VSORRESU>
    <VSSTRESC>61</VSSTRESC>
    <VSSTRESN>61.0</VSSTRESN>
    <VSSTRESU>beats/min</VSSTRESU>
    <VSSTAT/>
    <VSLOC/>
    <VSLOBXFL/>
    <VSREPNUM>1.0</VSREPNUM>
    <VISITNUM>3</VISITNUM>
    <VISIT>BASELINE</VISIT>
    <EPOCH>SCREENING</EPOCH>
    <VSDTC>2013-10-08</VSDTC>
    <VSDY>1</VSDY>
  </row>
  <row>
    <index>237</index>
    <STUDYID>CDISCPILOT01</STUDYID>
    <DOMAIN>VS</DOMAIN>
    <USUBJID>CDISC004</USUBJID>
    <VSSEQ>42</VSSEQ>
    <VSTESTCD>PULSE</VSTESTCD>
    <VSTEST>Pulse Rate</VSTEST>
    <VSPOS>STANDING</VSPOS>
    <VSORRES>68</VSORRES>
    <VSORRESU>beats/min</VSORRESU>
    <VSSTRESC>68</VSSTRESC>
    <VSSTRESN>68.0</VSSTRESN>
    <VSSTRESU>beats/min</VSSTRESU>
    <VSSTAT/>
    <VSLOC/>
    <VSLOBXFL/>
    <VSREPNUM>2.0</VSREPNUM>
    <VISITNUM>3</VISITNUM>
    <VISIT>BASELINE</VISIT>
    <EPOCH>SCREENING</EPOCH>
    <VSDTC>2013-10-08</VSDTC>
    <VSDY>1</VSDY>
  </row>
  <row>
    <index>238</index>
    <STUDYID>CDISCPILOT01</STUDYID>
    <DOMAIN>VS</DOMAIN>
    <USUBJID>CDISC004</USUBJID>
    <VSSEQ>43</VSSEQ>
    <VSTESTCD>PULSE</VSTESTCD>
    <VSTEST>Pulse Rate</VSTEST>
    <VSPOS>STANDING</VSPOS>
    <VSORRES>67</VSORRES>
    <VSORRESU>beats/min</VSORRESU>
    <VSSTRESC>67</VSSTRESC>
    <VSSTRESN>67.0</VSSTRESN>
    <VSSTRESU>beats/min</VSSTRESU>
    <VSSTAT/>
    <VSLOC/>
    <VSLOBXFL>Y</VSLOBXFL>
    <VSREPNUM>3.0</VSREPNUM>
    <VISITNUM>3</VISITNUM>
    <VISIT>BASELINE</VISIT>
    <EPOCH>SCREENING</EPOCH>
    <VSDTC>2013-10-08</VSDTC>
    <VSDY>1</VSDY>
  </row>
  <row>
    <index>239</index>
    <STUDYID>CDISCPILOT01</STUDYID>
    <DOMAIN>VS</DOMAIN>
    <USUBJID>CDISC004</USUBJID>
    <VSSEQ>44</VSSEQ>
    <VSTESTCD>PULSE</VSTESTCD>
    <VSTEST>Pulse Rate</VSTEST>
    <VSPOS>SUPINE</VSPOS>
    <VSORRES>62</VSORRES>
    <VSORRESU>beats/min</VSORRESU>
    <VSSTRESC>62</VSSTRESC>
    <VSSTRESN>62.0</VSSTRESN>
    <VSSTRESU>beats/min</VSSTRESU>
    <VSSTAT/>
    <VSLOC/>
    <VSLOBXFL/>
    <VSREPNUM>1.0</VSREPNUM>
    <VISITNUM>4</VISITNUM>
    <VISIT>WEEK 2</VISIT>
    <EPOCH>TREATMENT</EPOCH>
    <VSDTC>2013-10-24</VSDTC>
    <VSDY>17</VSDY>
  </row>
  <row>
    <index>240</index>
    <STUDYID>CDISCPILOT01</STUDYID>
    <DOMAIN>VS</DOMAIN>
    <USUBJID>CDISC004</USUBJID>
    <VSSEQ>45</VSSEQ>
    <VSTESTCD>PULSE</VSTESTCD>
    <VSTEST>Pulse Rate</VSTEST>
    <VSPOS>STANDING</VSPOS>
    <VSORRES>73</VSORRES>
    <VSORRESU>beats/min</VSORRESU>
    <VSSTRESC>73</VSSTRESC>
    <VSSTRESN>73.0</VSSTRESN>
    <VSSTRESU>beats/min</VSSTRESU>
    <VSSTAT/>
    <VSLOC/>
    <VSLOBXFL/>
    <VSREPNUM>2.0</VSREPNUM>
    <VISITNUM>4</VISITNUM>
    <VISIT>WEEK 2</VISIT>
    <EPOCH>TREATMENT</EPOCH>
    <VSDTC>2013-10-24</VSDTC>
    <VSDY>17</VSDY>
  </row>
  <row>
    <index>241</index>
    <STUDYID>CDISCPILOT01</STUDYID>
    <DOMAIN>VS</DOMAIN>
    <USUBJID>CDISC004</USUBJID>
    <VSSEQ>46</VSSEQ>
    <VSTESTCD>PULSE</VSTESTCD>
    <VSTEST>Pulse Rate</VSTEST>
    <VSPOS>STANDING</VSPOS>
    <VSORRES>74</VSORRES>
    <VSORRESU>beats/min</VSORRESU>
    <VSSTRESC>74</VSSTRESC>
    <VSSTRESN>74.0</VSSTRESN>
    <VSSTRESU>beats/min</VSSTRESU>
    <VSSTAT/>
    <VSLOC/>
    <VSLOBXFL/>
    <VSREPNUM>3.0</VSREPNUM>
    <VISITNUM>4</VISITNUM>
    <VISIT>WEEK 2</VISIT>
    <EPOCH>TREATMENT</EPOCH>
    <VSDTC>2013-10-24</VSDTC>
    <VSDY>17</VSDY>
  </row>
  <row>
    <index>242</index>
    <STUDYID>CDISCPILOT01</STUDYID>
    <DOMAIN>VS</DOMAIN>
    <USUBJID>CDISC004</USUBJID>
    <VSSEQ>47</VSSEQ>
    <VSTESTCD>PULSE</VSTESTCD>
    <VSTEST>Pulse Rate</VSTEST>
    <VSPOS>SUPINE</VSPOS>
    <VSORRES>66</VSORRES>
    <VSORRESU>beats/min</VSORRESU>
    <VSSTRESC>66</VSSTRESC>
    <VSSTRESN>66.0</VSSTRESN>
    <VSSTRESU>beats/min</VSSTRESU>
    <VSSTAT/>
    <VSLOC/>
    <VSLOBXFL/>
    <VSREPNUM>1.0</VSREPNUM>
    <VISITNUM>5</VISITNUM>
    <VISIT>WEEK 4</VISIT>
    <EPOCH>TREATMENT</EPOCH>
    <VSDTC>2013-11-08</VSDTC>
    <VSDY>32</VSDY>
  </row>
  <row>
    <index>243</index>
    <STUDYID>CDISCPILOT01</STUDYID>
    <DOMAIN>VS</DOMAIN>
    <USUBJID>CDISC004</USUBJID>
    <VSSEQ>48</VSSEQ>
    <VSTESTCD>PULSE</VSTESTCD>
    <VSTEST>Pulse Rate</VSTEST>
    <VSPOS>STANDING</VSPOS>
    <VSORRES>87</VSORRES>
    <VSORRESU>beats/min</VSORRESU>
    <VSSTRESC>87</VSSTRESC>
    <VSSTRESN>87.0</VSSTRESN>
    <VSSTRESU>beats/min</VSSTRESU>
    <VSSTAT/>
    <VSLOC/>
    <VSLOBXFL/>
    <VSREPNUM>2.0</VSREPNUM>
    <VISITNUM>5</VISITNUM>
    <VISIT>WEEK 4</VISIT>
    <EPOCH>TREATMENT</EPOCH>
    <VSDTC>2013-11-08</VSDTC>
    <VSDY>32</VSDY>
  </row>
  <row>
    <index>244</index>
    <STUDYID>CDISCPILOT01</STUDYID>
    <DOMAIN>VS</DOMAIN>
    <USUBJID>CDISC004</USUBJID>
    <VSSEQ>49</VSSEQ>
    <VSTESTCD>PULSE</VSTESTCD>
    <VSTEST>Pulse Rate</VSTEST>
    <VSPOS>STANDING</VSPOS>
    <VSORRES>86</VSORRES>
    <VSORRESU>beats/min</VSORRESU>
    <VSSTRESC>86</VSSTRESC>
    <VSSTRESN>86.0</VSSTRESN>
    <VSSTRESU>beats/min</VSSTRESU>
    <VSSTAT/>
    <VSLOC/>
    <VSLOBXFL/>
    <VSREPNUM>3.0</VSREPNUM>
    <VISITNUM>5</VISITNUM>
    <VISIT>WEEK 4</VISIT>
    <EPOCH>TREATMENT</EPOCH>
    <VSDTC>2013-11-08</VSDTC>
    <VSDY>32</VSDY>
  </row>
  <row>
    <index>245</index>
    <STUDYID>CDISCPILOT01</STUDYID>
    <DOMAIN>VS</DOMAIN>
    <USUBJID>CDISC004</USUBJID>
    <VSSEQ>50</VSSEQ>
    <VSTESTCD>PULSE</VSTESTCD>
    <VSTEST>Pulse Rate</VSTEST>
    <VSPOS>SUPINE</VSPOS>
    <VSORRES>62</VSORRES>
    <VSORRESU>beats/min</VSORRESU>
    <VSSTRESC>62</VSSTRESC>
    <VSSTRESN>62.0</VSSTRESN>
    <VSSTRESU>beats/min</VSSTRESU>
    <VSSTAT/>
    <VSLOC/>
    <VSLOBXFL/>
    <VSREPNUM>1.0</VSREPNUM>
    <VISITNUM>7</VISITNUM>
    <VISIT>WEEK 6</VISIT>
    <EPOCH>TREATMENT</EPOCH>
    <VSDTC>2013-11-19</VSDTC>
    <VSDY>43</VSDY>
  </row>
  <row>
    <index>246</index>
    <STUDYID>CDISCPILOT01</STUDYID>
    <DOMAIN>VS</DOMAIN>
    <USUBJID>CDISC004</USUBJID>
    <VSSEQ>51</VSSEQ>
    <VSTESTCD>PULSE</VSTESTCD>
    <VSTEST>Pulse Rate</VSTEST>
    <VSPOS>STANDING</VSPOS>
    <VSORRES>66</VSORRES>
    <VSORRESU>beats/min</VSORRESU>
    <VSSTRESC>66</VSSTRESC>
    <VSSTRESN>66.0</VSSTRESN>
    <VSSTRESU>beats/min</VSSTRESU>
    <VSSTAT/>
    <VSLOC/>
    <VSLOBXFL/>
    <VSREPNUM>2.0</VSREPNUM>
    <VISITNUM>7</VISITNUM>
    <VISIT>WEEK 6</VISIT>
    <EPOCH>TREATMENT</EPOCH>
    <VSDTC>2013-11-19</VSDTC>
    <VSDY>43</VSDY>
  </row>
  <row>
    <index>247</index>
    <STUDYID>CDISCPILOT01</STUDYID>
    <DOMAIN>VS</DOMAIN>
    <USUBJID>CDISC004</USUBJID>
    <VSSEQ>52</VSSEQ>
    <VSTESTCD>PULSE</VSTESTCD>
    <VSTEST>Pulse Rate</VSTEST>
    <VSPOS>STANDING</VSPOS>
    <VSORRES>68</VSORRES>
    <VSORRESU>beats/min</VSORRESU>
    <VSSTRESC>68</VSSTRESC>
    <VSSTRESN>68.0</VSSTRESN>
    <VSSTRESU>beats/min</VSSTRESU>
    <VSSTAT/>
    <VSLOC/>
    <VSLOBXFL/>
    <VSREPNUM>3.0</VSREPNUM>
    <VISITNUM>7</VISITNUM>
    <VISIT>WEEK 6</VISIT>
    <EPOCH>TREATMENT</EPOCH>
    <VSDTC>2013-11-19</VSDTC>
    <VSDY>43</VSDY>
  </row>
  <row>
    <index>248</index>
    <STUDYID>CDISCPILOT01</STUDYID>
    <DOMAIN>VS</DOMAIN>
    <USUBJID>CDISC004</USUBJID>
    <VSSEQ>53</VSSEQ>
    <VSTESTCD>PULSE</VSTESTCD>
    <VSTEST>Pulse Rate</VSTEST>
    <VSPOS>SUPINE</VSPOS>
    <VSORRES>59</VSORRES>
    <VSORRESU>beats/min</VSORRESU>
    <VSSTRESC>59</VSSTRESC>
    <VSSTRESN>59.0</VSSTRESN>
    <VSSTRESU>beats/min</VSSTRESU>
    <VSSTAT/>
    <VSLOC/>
    <VSLOBXFL/>
    <VSREPNUM>1.0</VSREPNUM>
    <VISITNUM>8</VISITNUM>
    <VISIT>WEEK 8</VISIT>
    <EPOCH>TREATMENT</EPOCH>
    <VSDTC>2013-12-03</VSDTC>
    <VSDY>57</VSDY>
  </row>
  <row>
    <index>249</index>
    <STUDYID>CDISCPILOT01</STUDYID>
    <DOMAIN>VS</DOMAIN>
    <USUBJID>CDISC004</USUBJID>
    <VSSEQ>54</VSSEQ>
    <VSTESTCD>PULSE</VSTESTCD>
    <VSTEST>Pulse Rate</VSTEST>
    <VSPOS>STANDING</VSPOS>
    <VSORRES>79</VSORRES>
    <VSORRESU>beats/min</VSORRESU>
    <VSSTRESC>79</VSSTRESC>
    <VSSTRESN>79.0</VSSTRESN>
    <VSSTRESU>beats/min</VSSTRESU>
    <VSSTAT/>
    <VSLOC/>
    <VSLOBXFL/>
    <VSREPNUM>2.0</VSREPNUM>
    <VISITNUM>8</VISITNUM>
    <VISIT>WEEK 8</VISIT>
    <EPOCH>TREATMENT</EPOCH>
    <VSDTC>2013-12-03</VSDTC>
    <VSDY>57</VSDY>
  </row>
  <row>
    <index>250</index>
    <STUDYID>CDISCPILOT01</STUDYID>
    <DOMAIN>VS</DOMAIN>
    <USUBJID>CDISC004</USUBJID>
    <VSSEQ>55</VSSEQ>
    <VSTESTCD>PULSE</VSTESTCD>
    <VSTEST>Pulse Rate</VSTEST>
    <VSPOS>STANDING</VSPOS>
    <VSORRES>83</VSORRES>
    <VSORRESU>beats/min</VSORRESU>
    <VSSTRESC>83</VSSTRESC>
    <VSSTRESN>83.0</VSSTRESN>
    <VSSTRESU>beats/min</VSSTRESU>
    <VSSTAT/>
    <VSLOC/>
    <VSLOBXFL/>
    <VSREPNUM>3.0</VSREPNUM>
    <VISITNUM>8</VISITNUM>
    <VISIT>WEEK 8</VISIT>
    <EPOCH>TREATMENT</EPOCH>
    <VSDTC>2013-12-03</VSDTC>
    <VSDY>57</VSDY>
  </row>
  <row>
    <index>251</index>
    <STUDYID>CDISCPILOT01</STUDYID>
    <DOMAIN>VS</DOMAIN>
    <USUBJID>CDISC004</USUBJID>
    <VSSEQ>56</VSSEQ>
    <VSTESTCD>PULSE</VSTESTCD>
    <VSTEST>Pulse Rate</VSTEST>
    <VSPOS>SUPINE</VSPOS>
    <VSORRES>62</VSORRES>
    <VSORRESU>beats/min</VSORRESU>
    <VSSTRESC>62</VSSTRESC>
    <VSSTRESN>62.0</VSSTRESN>
    <VSSTRESU>beats/min</VSSTRESU>
    <VSSTAT/>
    <VSLOC/>
    <VSLOBXFL/>
    <VSREPNUM>1.0</VSREPNUM>
    <VISITNUM>9</VISITNUM>
    <VISIT>WEEK 12</VISIT>
    <EPOCH>TREATMENT</EPOCH>
    <VSDTC>2013-12-31</VSDTC>
    <VSDY>85</VSDY>
  </row>
  <row>
    <index>252</index>
    <STUDYID>CDISCPILOT01</STUDYID>
    <DOMAIN>VS</DOMAIN>
    <USUBJID>CDISC004</USUBJID>
    <VSSEQ>57</VSSEQ>
    <VSTESTCD>PULSE</VSTESTCD>
    <VSTEST>Pulse Rate</VSTEST>
    <VSPOS>STANDING</VSPOS>
    <VSORRES>67</VSORRES>
    <VSORRESU>beats/min</VSORRESU>
    <VSSTRESC>67</VSSTRESC>
    <VSSTRESN>67.0</VSSTRESN>
    <VSSTRESU>beats/min</VSSTRESU>
    <VSSTAT/>
    <VSLOC/>
    <VSLOBXFL/>
    <VSREPNUM>2.0</VSREPNUM>
    <VISITNUM>9</VISITNUM>
    <VISIT>WEEK 12</VISIT>
    <EPOCH>TREATMENT</EPOCH>
    <VSDTC>2013-12-31</VSDTC>
    <VSDY>85</VSDY>
  </row>
  <row>
    <index>253</index>
    <STUDYID>CDISCPILOT01</STUDYID>
    <DOMAIN>VS</DOMAIN>
    <USUBJID>CDISC004</USUBJID>
    <VSSEQ>58</VSSEQ>
    <VSTESTCD>PULSE</VSTESTCD>
    <VSTEST>Pulse Rate</VSTEST>
    <VSPOS>STANDING</VSPOS>
    <VSORRES>65</VSORRES>
    <VSORRESU>beats/min</VSORRESU>
    <VSSTRESC>65</VSSTRESC>
    <VSSTRESN>65.0</VSSTRESN>
    <VSSTRESU>beats/min</VSSTRESU>
    <VSSTAT/>
    <VSLOC/>
    <VSLOBXFL/>
    <VSREPNUM>3.0</VSREPNUM>
    <VISITNUM>9</VISITNUM>
    <VISIT>WEEK 12</VISIT>
    <EPOCH>TREATMENT</EPOCH>
    <VSDTC>2013-12-31</VSDTC>
    <VSDY>85</VSDY>
  </row>
  <row>
    <index>254</index>
    <STUDYID>CDISCPILOT01</STUDYID>
    <DOMAIN>VS</DOMAIN>
    <USUBJID>CDISC004</USUBJID>
    <VSSEQ>59</VSSEQ>
    <VSTESTCD>PULSE</VSTESTCD>
    <VSTEST>Pulse Rate</VSTEST>
    <VSPOS>SUPINE</VSPOS>
    <VSORRES>66</VSORRES>
    <VSORRESU>beats/min</VSORRESU>
    <VSSTRESC>66</VSSTRESC>
    <VSSTRESN>66.0</VSSTRESN>
    <VSSTRESU>beats/min</VSSTRESU>
    <VSSTAT/>
    <VSLOC/>
    <VSLOBXFL/>
    <VSREPNUM>1.0</VSREPNUM>
    <VISITNUM>10</VISITNUM>
    <VISIT>WEEK 16</VISIT>
    <EPOCH>TREATMENT</EPOCH>
    <VSDTC>2014-01-27</VSDTC>
    <VSDY>112</VSDY>
  </row>
  <row>
    <index>255</index>
    <STUDYID>CDISCPILOT01</STUDYID>
    <DOMAIN>VS</DOMAIN>
    <USUBJID>CDISC004</USUBJID>
    <VSSEQ>60</VSSEQ>
    <VSTESTCD>PULSE</VSTESTCD>
    <VSTEST>Pulse Rate</VSTEST>
    <VSPOS>STANDING</VSPOS>
    <VSORRES>79</VSORRES>
    <VSORRESU>beats/min</VSORRESU>
    <VSSTRESC>79</VSSTRESC>
    <VSSTRESN>79.0</VSSTRESN>
    <VSSTRESU>beats/min</VSSTRESU>
    <VSSTAT/>
    <VSLOC/>
    <VSLOBXFL/>
    <VSREPNUM>2.0</VSREPNUM>
    <VISITNUM>10</VISITNUM>
    <VISIT>WEEK 16</VISIT>
    <EPOCH>TREATMENT</EPOCH>
    <VSDTC>2014-01-27</VSDTC>
    <VSDY>112</VSDY>
  </row>
  <row>
    <index>256</index>
    <STUDYID>CDISCPILOT01</STUDYID>
    <DOMAIN>VS</DOMAIN>
    <USUBJID>CDISC004</USUBJID>
    <VSSEQ>61</VSSEQ>
    <VSTESTCD>PULSE</VSTESTCD>
    <VSTEST>Pulse Rate</VSTEST>
    <VSPOS>STANDING</VSPOS>
    <VSORRES>83</VSORRES>
    <VSORRESU>beats/min</VSORRESU>
    <VSSTRESC>83</VSSTRESC>
    <VSSTRESN>83.0</VSSTRESN>
    <VSSTRESU>beats/min</VSSTRESU>
    <VSSTAT/>
    <VSLOC/>
    <VSLOBXFL/>
    <VSREPNUM>3.0</VSREPNUM>
    <VISITNUM>10</VISITNUM>
    <VISIT>WEEK 16</VISIT>
    <EPOCH>TREATMENT</EPOCH>
    <VSDTC>2014-01-27</VSDTC>
    <VSDY>112</VSDY>
  </row>
  <row>
    <index>257</index>
    <STUDYID>CDISCPILOT01</STUDYID>
    <DOMAIN>VS</DOMAIN>
    <USUBJID>CDISC004</USUBJID>
    <VSSEQ>62</VSSEQ>
    <VSTESTCD>PULSE</VSTESTCD>
    <VSTEST>Pulse Rate</VSTEST>
    <VSPOS>SUPINE</VSPOS>
    <VSORRES>61</VSORRES>
    <VSORRESU>beats/min</VSORRESU>
    <VSSTRESC>61</VSSTRESC>
    <VSSTRESN>61.0</VSSTRESN>
    <VSSTRESU>beats/min</VSSTRESU>
    <VSSTAT/>
    <VSLOC/>
    <VSLOBXFL/>
    <VSREPNUM>1.0</VSREPNUM>
    <VISITNUM>11</VISITNUM>
    <VISIT>WEEK 20</VISIT>
    <EPOCH>TREATMENT</EPOCH>
    <VSDTC>2014-02-25</VSDTC>
    <VSDY>141</VSDY>
  </row>
  <row>
    <index>258</index>
    <STUDYID>CDISCPILOT01</STUDYID>
    <DOMAIN>VS</DOMAIN>
    <USUBJID>CDISC004</USUBJID>
    <VSSEQ>63</VSSEQ>
    <VSTESTCD>PULSE</VSTESTCD>
    <VSTEST>Pulse Rate</VSTEST>
    <VSPOS>STANDING</VSPOS>
    <VSORRES>74</VSORRES>
    <VSORRESU>beats/min</VSORRESU>
    <VSSTRESC>74</VSSTRESC>
    <VSSTRESN>74.0</VSSTRESN>
    <VSSTRESU>beats/min</VSSTRESU>
    <VSSTAT/>
    <VSLOC/>
    <VSLOBXFL/>
    <VSREPNUM>2.0</VSREPNUM>
    <VISITNUM>11</VISITNUM>
    <VISIT>WEEK 20</VISIT>
    <EPOCH>TREATMENT</EPOCH>
    <VSDTC>2014-02-25</VSDTC>
    <VSDY>141</VSDY>
  </row>
  <row>
    <index>259</index>
    <STUDYID>CDISCPILOT01</STUDYID>
    <DOMAIN>VS</DOMAIN>
    <USUBJID>CDISC004</USUBJID>
    <VSSEQ>64</VSSEQ>
    <VSTESTCD>PULSE</VSTESTCD>
    <VSTEST>Pulse Rate</VSTEST>
    <VSPOS>STANDING</VSPOS>
    <VSORRES>75</VSORRES>
    <VSORRESU>beats/min</VSORRESU>
    <VSSTRESC>75</VSSTRESC>
    <VSSTRESN>75.0</VSSTRESN>
    <VSSTRESU>beats/min</VSSTRESU>
    <VSSTAT/>
    <VSLOC/>
    <VSLOBXFL/>
    <VSREPNUM>3.0</VSREPNUM>
    <VISITNUM>11</VISITNUM>
    <VISIT>WEEK 20</VISIT>
    <EPOCH>TREATMENT</EPOCH>
    <VSDTC>2014-02-25</VSDTC>
    <VSDY>141</VSDY>
  </row>
  <row>
    <index>260</index>
    <STUDYID>CDISCPILOT01</STUDYID>
    <DOMAIN>VS</DOMAIN>
    <USUBJID>CDISC004</USUBJID>
    <VSSEQ>65</VSSEQ>
    <VSTESTCD>PULSE</VSTESTCD>
    <VSTEST>Pulse Rate</VSTEST>
    <VSPOS>SUPINE</VSPOS>
    <VSORRES>64</VSORRES>
    <VSORRESU>beats/min</VSORRESU>
    <VSSTRESC>64</VSSTRESC>
    <VSSTRESN>64.0</VSSTRESN>
    <VSSTRESU>beats/min</VSSTRESU>
    <VSSTAT/>
    <VSLOC/>
    <VSLOBXFL/>
    <VSREPNUM>1.0</VSREPNUM>
    <VISITNUM>12</VISITNUM>
    <VISIT>WEEK 24</VISIT>
    <EPOCH>TREATMENT</EPOCH>
    <VSDTC>2014-03-18</VSDTC>
    <VSDY>162</VSDY>
  </row>
  <row>
    <index>261</index>
    <STUDYID>CDISCPILOT01</STUDYID>
    <DOMAIN>VS</DOMAIN>
    <USUBJID>CDISC004</USUBJID>
    <VSSEQ>66</VSSEQ>
    <VSTESTCD>PULSE</VSTESTCD>
    <VSTEST>Pulse Rate</VSTEST>
    <VSPOS>STANDING</VSPOS>
    <VSORRES>82</VSORRES>
    <VSORRESU>beats/min</VSORRESU>
    <VSSTRESC>82</VSSTRESC>
    <VSSTRESN>82.0</VSSTRESN>
    <VSSTRESU>beats/min</VSSTRESU>
    <VSSTAT/>
    <VSLOC/>
    <VSLOBXFL/>
    <VSREPNUM>2.0</VSREPNUM>
    <VISITNUM>12</VISITNUM>
    <VISIT>WEEK 24</VISIT>
    <EPOCH>TREATMENT</EPOCH>
    <VSDTC>2014-03-18</VSDTC>
    <VSDY>162</VSDY>
  </row>
  <row>
    <index>262</index>
    <STUDYID>CDISCPILOT01</STUDYID>
    <DOMAIN>VS</DOMAIN>
    <USUBJID>CDISC004</USUBJID>
    <VSSEQ>67</VSSEQ>
    <VSTESTCD>PULSE</VSTESTCD>
    <VSTEST>Pulse Rate</VSTEST>
    <VSPOS>STANDING</VSPOS>
    <VSORRES>80</VSORRES>
    <VSORRESU>beats/min</VSORRESU>
    <VSSTRESC>80</VSSTRESC>
    <VSSTRESN>80.0</VSSTRESN>
    <VSSTRESU>beats/min</VSSTRESU>
    <VSSTAT/>
    <VSLOC/>
    <VSLOBXFL/>
    <VSREPNUM>3.0</VSREPNUM>
    <VISITNUM>12</VISITNUM>
    <VISIT>WEEK 24</VISIT>
    <EPOCH>TREATMENT</EPOCH>
    <VSDTC>2014-03-18</VSDTC>
    <VSDY>162</VSDY>
  </row>
  <row>
    <index>263</index>
    <STUDYID>CDISCPILOT01</STUDYID>
    <DOMAIN>VS</DOMAIN>
    <USUBJID>CDISC004</USUBJID>
    <VSSEQ>68</VSSEQ>
    <VSTESTCD>SYSBP</VSTESTCD>
    <VSTEST>Systolic Blood Pressure</VSTEST>
    <VSPOS>SUPINE</VSPOS>
    <VSORRES>112</VSORRES>
    <VSORRESU>mmHg</VSORRESU>
    <VSSTRESC>112</VSSTRESC>
    <VSSTRESN>112.0</VSSTRESN>
    <VSSTRESU>mmHg</VSSTRESU>
    <VSSTAT/>
    <VSLOC/>
    <VSLOBXFL/>
    <VSREPNUM>1.0</VSREPNUM>
    <VISITNUM>1</VISITNUM>
    <VISIT>SCREENING 1</VISIT>
    <EPOCH>SCREENING</EPOCH>
    <VSDTC>2013-10-01</VSDTC>
    <VSDY>-7</VSDY>
  </row>
  <row>
    <index>264</index>
    <STUDYID>CDISCPILOT01</STUDYID>
    <DOMAIN>VS</DOMAIN>
    <USUBJID>CDISC004</USUBJID>
    <VSSEQ>69</VSSEQ>
    <VSTESTCD>SYSBP</VSTESTCD>
    <VSTEST>Systolic Blood Pressure</VSTEST>
    <VSPOS>STANDING</VSPOS>
    <VSORRES>110</VSORRES>
    <VSORRESU>mmHg</VSORRESU>
    <VSSTRESC>110</VSSTRESC>
    <VSSTRESN>110.0</VSSTRESN>
    <VSSTRESU>mmHg</VSSTRESU>
    <VSSTAT/>
    <VSLOC/>
    <VSLOBXFL/>
    <VSREPNUM>2.0</VSREPNUM>
    <VISITNUM>1</VISITNUM>
    <VISIT>SCREENING 1</VISIT>
    <EPOCH>SCREENING</EPOCH>
    <VSDTC>2013-10-01</VSDTC>
    <VSDY>-7</VSDY>
  </row>
  <row>
    <index>265</index>
    <STUDYID>CDISCPILOT01</STUDYID>
    <DOMAIN>VS</DOMAIN>
    <USUBJID>CDISC004</USUBJID>
    <VSSEQ>70</VSSEQ>
    <VSTESTCD>SYSBP</VSTESTCD>
    <VSTEST>Systolic Blood Pressure</VSTEST>
    <VSPOS>STANDING</VSPOS>
    <VSORRES>119</VSORRES>
    <VSORRESU>mmHg</VSORRESU>
    <VSSTRESC>119</VSSTRESC>
    <VSSTRESN>119.0</VSSTRESN>
    <VSSTRESU>mmHg</VSSTRESU>
    <VSSTAT/>
    <VSLOC/>
    <VSLOBXFL/>
    <VSREPNUM>3.0</VSREPNUM>
    <VISITNUM>1</VISITNUM>
    <VISIT>SCREENING 1</VISIT>
    <EPOCH>SCREENING</EPOCH>
    <VSDTC>2013-10-01</VSDTC>
    <VSDY>-7</VSDY>
  </row>
  <row>
    <index>266</index>
    <STUDYID>CDISCPILOT01</STUDYID>
    <DOMAIN>VS</DOMAIN>
    <USUBJID>CDISC004</USUBJID>
    <VSSEQ>71</VSSEQ>
    <VSTESTCD>SYSBP</VSTESTCD>
    <VSTEST>Systolic Blood Pressure</VSTEST>
    <VSPOS>SUPINE</VSPOS>
    <VSORRES>130</VSORRES>
    <VSORRESU>mmHg</VSORRESU>
    <VSSTRESC>130</VSSTRESC>
    <VSSTRESN>130.0</VSSTRESN>
    <VSSTRESU>mmHg</VSSTRESU>
    <VSSTAT/>
    <VSLOC/>
    <VSLOBXFL/>
    <VSREPNUM>1.0</VSREPNUM>
    <VISITNUM>2</VISITNUM>
    <VISIT>SCREENING 2</VISIT>
    <EPOCH>SCREENING</EPOCH>
    <VSDTC>2013-10-06</VSDTC>
    <VSDY>-2</VSDY>
  </row>
  <row>
    <index>267</index>
    <STUDYID>CDISCPILOT01</STUDYID>
    <DOMAIN>VS</DOMAIN>
    <USUBJID>CDISC004</USUBJID>
    <VSSEQ>72</VSSEQ>
    <VSTESTCD>SYSBP</VSTESTCD>
    <VSTEST>Systolic Blood Pressure</VSTEST>
    <VSPOS>STANDING</VSPOS>
    <VSORRES>121</VSORRES>
    <VSORRESU>mmHg</VSORRESU>
    <VSSTRESC>121</VSSTRESC>
    <VSSTRESN>121.0</VSSTRESN>
    <VSSTRESU>mmHg</VSSTRESU>
    <VSSTAT/>
    <VSLOC/>
    <VSLOBXFL/>
    <VSREPNUM>2.0</VSREPNUM>
    <VISITNUM>2</VISITNUM>
    <VISIT>SCREENING 2</VISIT>
    <EPOCH>SCREENING</EPOCH>
    <VSDTC>2013-10-06</VSDTC>
    <VSDY>-2</VSDY>
  </row>
  <row>
    <index>268</index>
    <STUDYID>CDISCPILOT01</STUDYID>
    <DOMAIN>VS</DOMAIN>
    <USUBJID>CDISC004</USUBJID>
    <VSSEQ>73</VSSEQ>
    <VSTESTCD>SYSBP</VSTESTCD>
    <VSTEST>Systolic Blood Pressure</VSTEST>
    <VSPOS>STANDING</VSPOS>
    <VSORRES>115</VSORRES>
    <VSORRESU>mmHg</VSORRESU>
    <VSSTRESC>115</VSSTRESC>
    <VSSTRESN>115.0</VSSTRESN>
    <VSSTRESU>mmHg</VSSTRESU>
    <VSSTAT/>
    <VSLOC/>
    <VSLOBXFL/>
    <VSREPNUM>3.0</VSREPNUM>
    <VISITNUM>2</VISITNUM>
    <VISIT>SCREENING 2</VISIT>
    <EPOCH>SCREENING</EPOCH>
    <VSDTC>2013-10-06</VSDTC>
    <VSDY>-2</VSDY>
  </row>
  <row>
    <index>269</index>
    <STUDYID>CDISCPILOT01</STUDYID>
    <DOMAIN>VS</DOMAIN>
    <USUBJID>CDISC004</USUBJID>
    <VSSEQ>74</VSSEQ>
    <VSTESTCD>SYSBP</VSTESTCD>
    <VSTEST>Systolic Blood Pressure</VSTEST>
    <VSPOS>SUPINE</VSPOS>
    <VSORRES>126</VSORRES>
    <VSORRESU>mmHg</VSORRESU>
    <VSSTRESC>126</VSSTRESC>
    <VSSTRESN>126.0</VSSTRESN>
    <VSSTRESU>mmHg</VSSTRESU>
    <VSSTAT/>
    <VSLOC/>
    <VSLOBXFL/>
    <VSREPNUM>1.0</VSREPNUM>
    <VISITNUM>3</VISITNUM>
    <VISIT>BASELINE</VISIT>
    <EPOCH>SCREENING</EPOCH>
    <VSDTC>2013-10-08</VSDTC>
    <VSDY>1</VSDY>
  </row>
  <row>
    <index>270</index>
    <STUDYID>CDISCPILOT01</STUDYID>
    <DOMAIN>VS</DOMAIN>
    <USUBJID>CDISC004</USUBJID>
    <VSSEQ>75</VSSEQ>
    <VSTESTCD>SYSBP</VSTESTCD>
    <VSTEST>Systolic Blood Pressure</VSTEST>
    <VSPOS>STANDING</VSPOS>
    <VSORRES>108</VSORRES>
    <VSORRESU>mmHg</VSORRESU>
    <VSSTRESC>108</VSSTRESC>
    <VSSTRESN>108.0</VSSTRESN>
    <VSSTRESU>mmHg</VSSTRESU>
    <VSSTAT/>
    <VSLOC/>
    <VSLOBXFL/>
    <VSREPNUM>2.0</VSREPNUM>
    <VISITNUM>3</VISITNUM>
    <VISIT>BASELINE</VISIT>
    <EPOCH>SCREENING</EPOCH>
    <VSDTC>2013-10-08</VSDTC>
    <VSDY>1</VSDY>
  </row>
  <row>
    <index>271</index>
    <STUDYID>CDISCPILOT01</STUDYID>
    <DOMAIN>VS</DOMAIN>
    <USUBJID>CDISC004</USUBJID>
    <VSSEQ>76</VSSEQ>
    <VSTESTCD>SYSBP</VSTESTCD>
    <VSTEST>Systolic Blood Pressure</VSTEST>
    <VSPOS>STANDING</VSPOS>
    <VSORRES>116</VSORRES>
    <VSORRESU>mmHg</VSORRESU>
    <VSSTRESC>116</VSSTRESC>
    <VSSTRESN>116.0</VSSTRESN>
    <VSSTRESU>mmHg</VSSTRESU>
    <VSSTAT/>
    <VSLOC/>
    <VSLOBXFL>Y</VSLOBXFL>
    <VSREPNUM>3.0</VSREPNUM>
    <VISITNUM>3</VISITNUM>
    <VISIT>BASELINE</VISIT>
    <EPOCH>SCREENING</EPOCH>
    <VSDTC>2013-10-08</VSDTC>
    <VSDY>1</VSDY>
  </row>
  <row>
    <index>272</index>
    <STUDYID>CDISCPILOT01</STUDYID>
    <DOMAIN>VS</DOMAIN>
    <USUBJID>CDISC004</USUBJID>
    <VSSEQ>77</VSSEQ>
    <VSTESTCD>SYSBP</VSTESTCD>
    <VSTEST>Systolic Blood Pressure</VSTEST>
    <VSPOS>SUPINE</VSPOS>
    <VSORRES>116</VSORRES>
    <VSORRESU>mmHg</VSORRESU>
    <VSSTRESC>116</VSSTRESC>
    <VSSTRESN>116.0</VSSTRESN>
    <VSSTRESU>mmHg</VSSTRESU>
    <VSSTAT/>
    <VSLOC/>
    <VSLOBXFL/>
    <VSREPNUM>1.0</VSREPNUM>
    <VISITNUM>4</VISITNUM>
    <VISIT>WEEK 2</VISIT>
    <EPOCH>TREATMENT</EPOCH>
    <VSDTC>2013-10-24</VSDTC>
    <VSDY>17</VSDY>
  </row>
  <row>
    <index>273</index>
    <STUDYID>CDISCPILOT01</STUDYID>
    <DOMAIN>VS</DOMAIN>
    <USUBJID>CDISC004</USUBJID>
    <VSSEQ>78</VSSEQ>
    <VSTESTCD>SYSBP</VSTESTCD>
    <VSTEST>Systolic Blood Pressure</VSTEST>
    <VSPOS>STANDING</VSPOS>
    <VSORRES>110</VSORRES>
    <VSORRESU>mmHg</VSORRESU>
    <VSSTRESC>110</VSSTRESC>
    <VSSTRESN>110.0</VSSTRESN>
    <VSSTRESU>mmHg</VSSTRESU>
    <VSSTAT/>
    <VSLOC/>
    <VSLOBXFL/>
    <VSREPNUM>2.0</VSREPNUM>
    <VISITNUM>4</VISITNUM>
    <VISIT>WEEK 2</VISIT>
    <EPOCH>TREATMENT</EPOCH>
    <VSDTC>2013-10-24</VSDTC>
    <VSDY>17</VSDY>
  </row>
  <row>
    <index>274</index>
    <STUDYID>CDISCPILOT01</STUDYID>
    <DOMAIN>VS</DOMAIN>
    <USUBJID>CDISC004</USUBJID>
    <VSSEQ>79</VSSEQ>
    <VSTESTCD>SYSBP</VSTESTCD>
    <VSTEST>Systolic Blood Pressure</VSTEST>
    <VSPOS>STANDING</VSPOS>
    <VSORRES>118</VSORRES>
    <VSORRESU>mmHg</VSORRESU>
    <VSSTRESC>118</VSSTRESC>
    <VSSTRESN>118.0</VSSTRESN>
    <VSSTRESU>mmHg</VSSTRESU>
    <VSSTAT/>
    <VSLOC/>
    <VSLOBXFL/>
    <VSREPNUM>3.0</VSREPNUM>
    <VISITNUM>4</VISITNUM>
    <VISIT>WEEK 2</VISIT>
    <EPOCH>TREATMENT</EPOCH>
    <VSDTC>2013-10-24</VSDTC>
    <VSDY>17</VSDY>
  </row>
  <row>
    <index>275</index>
    <STUDYID>CDISCPILOT01</STUDYID>
    <DOMAIN>VS</DOMAIN>
    <USUBJID>CDISC004</USUBJID>
    <VSSEQ>80</VSSEQ>
    <VSTESTCD>SYSBP</VSTESTCD>
    <VSTEST>Systolic Blood Pressure</VSTEST>
    <VSPOS>SUPINE</VSPOS>
    <VSORRES>113</VSORRES>
    <VSORRESU>mmHg</VSORRESU>
    <VSSTRESC>113</VSSTRESC>
    <VSSTRESN>113.0</VSSTRESN>
    <VSSTRESU>mmHg</VSSTRESU>
    <VSSTAT/>
    <VSLOC/>
    <VSLOBXFL/>
    <VSREPNUM>1.0</VSREPNUM>
    <VISITNUM>5</VISITNUM>
    <VISIT>WEEK 4</VISIT>
    <EPOCH>TREATMENT</EPOCH>
    <VSDTC>2013-11-08</VSDTC>
    <VSDY>32</VSDY>
  </row>
  <row>
    <index>276</index>
    <STUDYID>CDISCPILOT01</STUDYID>
    <DOMAIN>VS</DOMAIN>
    <USUBJID>CDISC004</USUBJID>
    <VSSEQ>81</VSSEQ>
    <VSTESTCD>SYSBP</VSTESTCD>
    <VSTEST>Systolic Blood Pressure</VSTEST>
    <VSPOS>STANDING</VSPOS>
    <VSORRES>106</VSORRES>
    <VSORRESU>mmHg</VSORRESU>
    <VSSTRESC>106</VSSTRESC>
    <VSSTRESN>106.0</VSSTRESN>
    <VSSTRESU>mmHg</VSSTRESU>
    <VSSTAT/>
    <VSLOC/>
    <VSLOBXFL/>
    <VSREPNUM>2.0</VSREPNUM>
    <VISITNUM>5</VISITNUM>
    <VISIT>WEEK 4</VISIT>
    <EPOCH>TREATMENT</EPOCH>
    <VSDTC>2013-11-08</VSDTC>
    <VSDY>32</VSDY>
  </row>
  <row>
    <index>277</index>
    <STUDYID>CDISCPILOT01</STUDYID>
    <DOMAIN>VS</DOMAIN>
    <USUBJID>CDISC004</USUBJID>
    <VSSEQ>82</VSSEQ>
    <VSTESTCD>SYSBP</VSTESTCD>
    <VSTEST>Systolic Blood Pressure</VSTEST>
    <VSPOS>STANDING</VSPOS>
    <VSORRES>123</VSORRES>
    <VSORRESU>mmHg</VSORRESU>
    <VSSTRESC>123</VSSTRESC>
    <VSSTRESN>123.0</VSSTRESN>
    <VSSTRESU>mmHg</VSSTRESU>
    <VSSTAT/>
    <VSLOC/>
    <VSLOBXFL/>
    <VSREPNUM>3.0</VSREPNUM>
    <VISITNUM>5</VISITNUM>
    <VISIT>WEEK 4</VISIT>
    <EPOCH>TREATMENT</EPOCH>
    <VSDTC>2013-11-08</VSDTC>
    <VSDY>32</VSDY>
  </row>
  <row>
    <index>278</index>
    <STUDYID>CDISCPILOT01</STUDYID>
    <DOMAIN>VS</DOMAIN>
    <USUBJID>CDISC004</USUBJID>
    <VSSEQ>83</VSSEQ>
    <VSTESTCD>SYSBP</VSTESTCD>
    <VSTEST>Systolic Blood Pressure</VSTEST>
    <VSPOS>SUPINE</VSPOS>
    <VSORRES>129</VSORRES>
    <VSORRESU>mmHg</VSORRESU>
    <VSSTRESC>129</VSSTRESC>
    <VSSTRESN>129.0</VSSTRESN>
    <VSSTRESU>mmHg</VSSTRESU>
    <VSSTAT/>
    <VSLOC/>
    <VSLOBXFL/>
    <VSREPNUM>1.0</VSREPNUM>
    <VISITNUM>7</VISITNUM>
    <VISIT>WEEK 6</VISIT>
    <EPOCH>TREATMENT</EPOCH>
    <VSDTC>2013-11-19</VSDTC>
    <VSDY>43</VSDY>
  </row>
  <row>
    <index>279</index>
    <STUDYID>CDISCPILOT01</STUDYID>
    <DOMAIN>VS</DOMAIN>
    <USUBJID>CDISC004</USUBJID>
    <VSSEQ>84</VSSEQ>
    <VSTESTCD>SYSBP</VSTESTCD>
    <VSTEST>Systolic Blood Pressure</VSTEST>
    <VSPOS>STANDING</VSPOS>
    <VSORRES>122</VSORRES>
    <VSORRESU>mmHg</VSORRESU>
    <VSSTRESC>122</VSSTRESC>
    <VSSTRESN>122.0</VSSTRESN>
    <VSSTRESU>mmHg</VSSTRESU>
    <VSSTAT/>
    <VSLOC/>
    <VSLOBXFL/>
    <VSREPNUM>2.0</VSREPNUM>
    <VISITNUM>7</VISITNUM>
    <VISIT>WEEK 6</VISIT>
    <EPOCH>TREATMENT</EPOCH>
    <VSDTC>2013-11-19</VSDTC>
    <VSDY>43</VSDY>
  </row>
  <row>
    <index>280</index>
    <STUDYID>CDISCPILOT01</STUDYID>
    <DOMAIN>VS</DOMAIN>
    <USUBJID>CDISC004</USUBJID>
    <VSSEQ>85</VSSEQ>
    <VSTESTCD>SYSBP</VSTESTCD>
    <VSTEST>Systolic Blood Pressure</VSTEST>
    <VSPOS>STANDING</VSPOS>
    <VSORRES>115</VSORRES>
    <VSORRESU>mmHg</VSORRESU>
    <VSSTRESC>115</VSSTRESC>
    <VSSTRESN>115.0</VSSTRESN>
    <VSSTRESU>mmHg</VSSTRESU>
    <VSSTAT/>
    <VSLOC/>
    <VSLOBXFL/>
    <VSREPNUM>3.0</VSREPNUM>
    <VISITNUM>7</VISITNUM>
    <VISIT>WEEK 6</VISIT>
    <EPOCH>TREATMENT</EPOCH>
    <VSDTC>2013-11-19</VSDTC>
    <VSDY>43</VSDY>
  </row>
  <row>
    <index>281</index>
    <STUDYID>CDISCPILOT01</STUDYID>
    <DOMAIN>VS</DOMAIN>
    <USUBJID>CDISC004</USUBJID>
    <VSSEQ>86</VSSEQ>
    <VSTESTCD>SYSBP</VSTESTCD>
    <VSTEST>Systolic Blood Pressure</VSTEST>
    <VSPOS>SUPINE</VSPOS>
    <VSORRES>115</VSORRES>
    <VSORRESU>mmHg</VSORRESU>
    <VSSTRESC>115</VSSTRESC>
    <VSSTRESN>115.0</VSSTRESN>
    <VSSTRESU>mmHg</VSSTRESU>
    <VSSTAT/>
    <VSLOC/>
    <VSLOBXFL/>
    <VSREPNUM>1.0</VSREPNUM>
    <VISITNUM>8</VISITNUM>
    <VISIT>WEEK 8</VISIT>
    <EPOCH>TREATMENT</EPOCH>
    <VSDTC>2013-12-03</VSDTC>
    <VSDY>57</VSDY>
  </row>
  <row>
    <index>282</index>
    <STUDYID>CDISCPILOT01</STUDYID>
    <DOMAIN>VS</DOMAIN>
    <USUBJID>CDISC004</USUBJID>
    <VSSEQ>87</VSSEQ>
    <VSTESTCD>SYSBP</VSTESTCD>
    <VSTEST>Systolic Blood Pressure</VSTEST>
    <VSPOS>STANDING</VSPOS>
    <VSORRES>105</VSORRES>
    <VSORRESU>mmHg</VSORRESU>
    <VSSTRESC>105</VSSTRESC>
    <VSSTRESN>105.0</VSSTRESN>
    <VSSTRESU>mmHg</VSSTRESU>
    <VSSTAT/>
    <VSLOC/>
    <VSLOBXFL/>
    <VSREPNUM>2.0</VSREPNUM>
    <VISITNUM>8</VISITNUM>
    <VISIT>WEEK 8</VISIT>
    <EPOCH>TREATMENT</EPOCH>
    <VSDTC>2013-12-03</VSDTC>
    <VSDY>57</VSDY>
  </row>
  <row>
    <index>283</index>
    <STUDYID>CDISCPILOT01</STUDYID>
    <DOMAIN>VS</DOMAIN>
    <USUBJID>CDISC004</USUBJID>
    <VSSEQ>88</VSSEQ>
    <VSTESTCD>SYSBP</VSTESTCD>
    <VSTEST>Systolic Blood Pressure</VSTEST>
    <VSPOS>STANDING</VSPOS>
    <VSORRES>108</VSORRES>
    <VSORRESU>mmHg</VSORRESU>
    <VSSTRESC>108</VSSTRESC>
    <VSSTRESN>108.0</VSSTRESN>
    <VSSTRESU>mmHg</VSSTRESU>
    <VSSTAT/>
    <VSLOC/>
    <VSLOBXFL/>
    <VSREPNUM>3.0</VSREPNUM>
    <VISITNUM>8</VISITNUM>
    <VISIT>WEEK 8</VISIT>
    <EPOCH>TREATMENT</EPOCH>
    <VSDTC>2013-12-03</VSDTC>
    <VSDY>57</VSDY>
  </row>
  <row>
    <index>284</index>
    <STUDYID>CDISCPILOT01</STUDYID>
    <DOMAIN>VS</DOMAIN>
    <USUBJID>CDISC004</USUBJID>
    <VSSEQ>89</VSSEQ>
    <VSTESTCD>SYSBP</VSTESTCD>
    <VSTEST>Systolic Blood Pressure</VSTEST>
    <VSPOS>SUPINE</VSPOS>
    <VSORRES>121</VSORRES>
    <VSORRESU>mmHg</VSORRESU>
    <VSSTRESC>121</VSSTRESC>
    <VSSTRESN>121.0</VSSTRESN>
    <VSSTRESU>mmHg</VSSTRESU>
    <VSSTAT/>
    <VSLOC/>
    <VSLOBXFL/>
    <VSREPNUM>1.0</VSREPNUM>
    <VISITNUM>9</VISITNUM>
    <VISIT>WEEK 12</VISIT>
    <EPOCH>TREATMENT</EPOCH>
    <VSDTC>2013-12-31</VSDTC>
    <VSDY>85</VSDY>
  </row>
  <row>
    <index>285</index>
    <STUDYID>CDISCPILOT01</STUDYID>
    <DOMAIN>VS</DOMAIN>
    <USUBJID>CDISC004</USUBJID>
    <VSSEQ>90</VSSEQ>
    <VSTESTCD>SYSBP</VSTESTCD>
    <VSTEST>Systolic Blood Pressure</VSTEST>
    <VSPOS>STANDING</VSPOS>
    <VSORRES>113</VSORRES>
    <VSORRESU>mmHg</VSORRESU>
    <VSSTRESC>113</VSSTRESC>
    <VSSTRESN>113.0</VSSTRESN>
    <VSSTRESU>mmHg</VSSTRESU>
    <VSSTAT/>
    <VSLOC/>
    <VSLOBXFL/>
    <VSREPNUM>2.0</VSREPNUM>
    <VISITNUM>9</VISITNUM>
    <VISIT>WEEK 12</VISIT>
    <EPOCH>TREATMENT</EPOCH>
    <VSDTC>2013-12-31</VSDTC>
    <VSDY>85</VSDY>
  </row>
  <row>
    <index>286</index>
    <STUDYID>CDISCPILOT01</STUDYID>
    <DOMAIN>VS</DOMAIN>
    <USUBJID>CDISC004</USUBJID>
    <VSSEQ>91</VSSEQ>
    <VSTESTCD>SYSBP</VSTESTCD>
    <VSTEST>Systolic Blood Pressure</VSTEST>
    <VSPOS>STANDING</VSPOS>
    <VSORRES>121</VSORRES>
    <VSORRESU>mmHg</VSORRESU>
    <VSSTRESC>121</VSSTRESC>
    <VSSTRESN>121.0</VSSTRESN>
    <VSSTRESU>mmHg</VSSTRESU>
    <VSSTAT/>
    <VSLOC/>
    <VSLOBXFL/>
    <VSREPNUM>3.0</VSREPNUM>
    <VISITNUM>9</VISITNUM>
    <VISIT>WEEK 12</VISIT>
    <EPOCH>TREATMENT</EPOCH>
    <VSDTC>2013-12-31</VSDTC>
    <VSDY>85</VSDY>
  </row>
  <row>
    <index>287</index>
    <STUDYID>CDISCPILOT01</STUDYID>
    <DOMAIN>VS</DOMAIN>
    <USUBJID>CDISC004</USUBJID>
    <VSSEQ>92</VSSEQ>
    <VSTESTCD>SYSBP</VSTESTCD>
    <VSTEST>Systolic Blood Pressure</VSTEST>
    <VSPOS>SUPINE</VSPOS>
    <VSORRES>120</VSORRES>
    <VSORRESU>mmHg</VSORRESU>
    <VSSTRESC>120</VSSTRESC>
    <VSSTRESN>120.0</VSSTRESN>
    <VSSTRESU>mmHg</VSSTRESU>
    <VSSTAT/>
    <VSLOC/>
    <VSLOBXFL/>
    <VSREPNUM>1.0</VSREPNUM>
    <VISITNUM>10</VISITNUM>
    <VISIT>WEEK 16</VISIT>
    <EPOCH>TREATMENT</EPOCH>
    <VSDTC>2014-01-27</VSDTC>
    <VSDY>112</VSDY>
  </row>
  <row>
    <index>288</index>
    <STUDYID>CDISCPILOT01</STUDYID>
    <DOMAIN>VS</DOMAIN>
    <USUBJID>CDISC004</USUBJID>
    <VSSEQ>93</VSSEQ>
    <VSTESTCD>SYSBP</VSTESTCD>
    <VSTEST>Systolic Blood Pressure</VSTEST>
    <VSPOS>STANDING</VSPOS>
    <VSORRES>114</VSORRES>
    <VSORRESU>mmHg</VSORRESU>
    <VSSTRESC>114</VSSTRESC>
    <VSSTRESN>114.0</VSSTRESN>
    <VSSTRESU>mmHg</VSSTRESU>
    <VSSTAT/>
    <VSLOC/>
    <VSLOBXFL/>
    <VSREPNUM>2.0</VSREPNUM>
    <VISITNUM>10</VISITNUM>
    <VISIT>WEEK 16</VISIT>
    <EPOCH>TREATMENT</EPOCH>
    <VSDTC>2014-01-27</VSDTC>
    <VSDY>112</VSDY>
  </row>
  <row>
    <index>289</index>
    <STUDYID>CDISCPILOT01</STUDYID>
    <DOMAIN>VS</DOMAIN>
    <USUBJID>CDISC004</USUBJID>
    <VSSEQ>94</VSSEQ>
    <VSTESTCD>SYSBP</VSTESTCD>
    <VSTEST>Systolic Blood Pressure</VSTEST>
    <VSPOS>STANDING</VSPOS>
    <VSORRES>123</VSORRES>
    <VSORRESU>mmHg</VSORRESU>
    <VSSTRESC>123</VSSTRESC>
    <VSSTRESN>123.0</VSSTRESN>
    <VSSTRESU>mmHg</VSSTRESU>
    <VSSTAT/>
    <VSLOC/>
    <VSLOBXFL/>
    <VSREPNUM>3.0</VSREPNUM>
    <VISITNUM>10</VISITNUM>
    <VISIT>WEEK 16</VISIT>
    <EPOCH>TREATMENT</EPOCH>
    <VSDTC>2014-01-27</VSDTC>
    <VSDY>112</VSDY>
  </row>
  <row>
    <index>290</index>
    <STUDYID>CDISCPILOT01</STUDYID>
    <DOMAIN>VS</DOMAIN>
    <USUBJID>CDISC004</USUBJID>
    <VSSEQ>95</VSSEQ>
    <VSTESTCD>SYSBP</VSTESTCD>
    <VSTEST>Systolic Blood Pressure</VSTEST>
    <VSPOS>SUPINE</VSPOS>
    <VSORRES>113</VSORRES>
    <VSORRESU>mmHg</VSORRESU>
    <VSSTRESC>113</VSSTRESC>
    <VSSTRESN>113.0</VSSTRESN>
    <VSSTRESU>mmHg</VSSTRESU>
    <VSSTAT/>
    <VSLOC/>
    <VSLOBXFL/>
    <VSREPNUM>1.0</VSREPNUM>
    <VISITNUM>11</VISITNUM>
    <VISIT>WEEK 20</VISIT>
    <EPOCH>TREATMENT</EPOCH>
    <VSDTC>2014-02-25</VSDTC>
    <VSDY>141</VSDY>
  </row>
  <row>
    <index>291</index>
    <STUDYID>CDISCPILOT01</STUDYID>
    <DOMAIN>VS</DOMAIN>
    <USUBJID>CDISC004</USUBJID>
    <VSSEQ>96</VSSEQ>
    <VSTESTCD>SYSBP</VSTESTCD>
    <VSTEST>Systolic Blood Pressure</VSTEST>
    <VSPOS>STANDING</VSPOS>
    <VSORRES>104</VSORRES>
    <VSORRESU>mmHg</VSORRESU>
    <VSSTRESC>104</VSSTRESC>
    <VSSTRESN>104.0</VSSTRESN>
    <VSSTRESU>mmHg</VSSTRESU>
    <VSSTAT/>
    <VSLOC/>
    <VSLOBXFL/>
    <VSREPNUM>2.0</VSREPNUM>
    <VISITNUM>11</VISITNUM>
    <VISIT>WEEK 20</VISIT>
    <EPOCH>TREATMENT</EPOCH>
    <VSDTC>2014-02-25</VSDTC>
    <VSDY>141</VSDY>
  </row>
  <row>
    <index>292</index>
    <STUDYID>CDISCPILOT01</STUDYID>
    <DOMAIN>VS</DOMAIN>
    <USUBJID>CDISC004</USUBJID>
    <VSSEQ>97</VSSEQ>
    <VSTESTCD>SYSBP</VSTESTCD>
    <VSTEST>Systolic Blood Pressure</VSTEST>
    <VSPOS>STANDING</VSPOS>
    <VSORRES>122</VSORRES>
    <VSORRESU>mmHg</VSORRESU>
    <VSSTRESC>122</VSSTRESC>
    <VSSTRESN>122.0</VSSTRESN>
    <VSSTRESU>mmHg</VSSTRESU>
    <VSSTAT/>
    <VSLOC/>
    <VSLOBXFL/>
    <VSREPNUM>3.0</VSREPNUM>
    <VISITNUM>11</VISITNUM>
    <VISIT>WEEK 20</VISIT>
    <EPOCH>TREATMENT</EPOCH>
    <VSDTC>2014-02-25</VSDTC>
    <VSDY>141</VSDY>
  </row>
  <row>
    <index>293</index>
    <STUDYID>CDISCPILOT01</STUDYID>
    <DOMAIN>VS</DOMAIN>
    <USUBJID>CDISC004</USUBJID>
    <VSSEQ>98</VSSEQ>
    <VSTESTCD>SYSBP</VSTESTCD>
    <VSTEST>Systolic Blood Pressure</VSTEST>
    <VSPOS>SUPINE</VSPOS>
    <VSORRES>122</VSORRES>
    <VSORRESU>mmHg</VSORRESU>
    <VSSTRESC>122</VSSTRESC>
    <VSSTRESN>122.0</VSSTRESN>
    <VSSTRESU>mmHg</VSSTRESU>
    <VSSTAT/>
    <VSLOC/>
    <VSLOBXFL/>
    <VSREPNUM>1.0</VSREPNUM>
    <VISITNUM>12</VISITNUM>
    <VISIT>WEEK 24</VISIT>
    <EPOCH>TREATMENT</EPOCH>
    <VSDTC>2014-03-18</VSDTC>
    <VSDY>162</VSDY>
  </row>
  <row>
    <index>294</index>
    <STUDYID>CDISCPILOT01</STUDYID>
    <DOMAIN>VS</DOMAIN>
    <USUBJID>CDISC004</USUBJID>
    <VSSEQ>99</VSSEQ>
    <VSTESTCD>SYSBP</VSTESTCD>
    <VSTEST>Systolic Blood Pressure</VSTEST>
    <VSPOS>STANDING</VSPOS>
    <VSORRES>120</VSORRES>
    <VSORRESU>mmHg</VSORRESU>
    <VSSTRESC>120</VSSTRESC>
    <VSSTRESN>120.0</VSSTRESN>
    <VSSTRESU>mmHg</VSSTRESU>
    <VSSTAT/>
    <VSLOC/>
    <VSLOBXFL/>
    <VSREPNUM>2.0</VSREPNUM>
    <VISITNUM>12</VISITNUM>
    <VISIT>WEEK 24</VISIT>
    <EPOCH>TREATMENT</EPOCH>
    <VSDTC>2014-03-18</VSDTC>
    <VSDY>162</VSDY>
  </row>
  <row>
    <index>295</index>
    <STUDYID>CDISCPILOT01</STUDYID>
    <DOMAIN>VS</DOMAIN>
    <USUBJID>CDISC004</USUBJID>
    <VSSEQ>100</VSSEQ>
    <VSTESTCD>SYSBP</VSTESTCD>
    <VSTEST>Systolic Blood Pressure</VSTEST>
    <VSPOS>STANDING</VSPOS>
    <VSORRES>113</VSORRES>
    <VSORRESU>mmHg</VSORRESU>
    <VSSTRESC>113</VSSTRESC>
    <VSSTRESN>113.0</VSSTRESN>
    <VSSTRESU>mmHg</VSSTRESU>
    <VSSTAT/>
    <VSLOC/>
    <VSLOBXFL/>
    <VSREPNUM>3.0</VSREPNUM>
    <VISITNUM>12</VISITNUM>
    <VISIT>WEEK 24</VISIT>
    <EPOCH>TREATMENT</EPOCH>
    <VSDTC>2014-03-18</VSDTC>
    <VSDY>162</VSDY>
  </row>
  <row>
    <index>296</index>
    <STUDYID>CDISCPILOT01</STUDYID>
    <DOMAIN>VS</DOMAIN>
    <USUBJID>CDISC004</USUBJID>
    <VSSEQ>101</VSSEQ>
    <VSTESTCD>TEMP</VSTESTCD>
    <VSTEST>Temperature</VSTEST>
    <VSPOS/>
    <VSORRES>98.5</VSORRES>
    <VSORRESU>F</VSORRESU>
    <VSSTRESC>36.94</VSSTRESC>
    <VSSTRESN>36.94</VSSTRESN>
    <VSSTRESU>C</VSSTRESU>
    <VSSTAT/>
    <VSLOC>ORAL CAVITY</VSLOC>
    <VSLOBXFL/>
    <VSREPNUM/>
    <VISITNUM>1</VISITNUM>
    <VISIT>SCREENING 1</VISIT>
    <EPOCH>SCREENING</EPOCH>
    <VSDTC>2013-10-01</VSDTC>
    <VSDY>-7</VSDY>
  </row>
  <row>
    <index>297</index>
    <STUDYID>CDISCPILOT01</STUDYID>
    <DOMAIN>VS</DOMAIN>
    <USUBJID>CDISC004</USUBJID>
    <VSSEQ>102</VSSEQ>
    <VSTESTCD>TEMP</VSTESTCD>
    <VSTEST>Temperature</VSTEST>
    <VSPOS/>
    <VSORRES>98.0</VSORRES>
    <VSORRESU>F</VSORRESU>
    <VSSTRESC>36.67</VSSTRESC>
    <VSSTRESN>36.67</VSSTRESN>
    <VSSTRESU>C</VSSTRESU>
    <VSSTAT/>
    <VSLOC>ORAL CAVITY</VSLOC>
    <VSLOBXFL/>
    <VSREPNUM/>
    <VISITNUM>2</VISITNUM>
    <VISIT>SCREENING 2</VISIT>
    <EPOCH>SCREENING</EPOCH>
    <VSDTC>2013-10-06</VSDTC>
    <VSDY>-2</VSDY>
  </row>
  <row>
    <index>298</index>
    <STUDYID>CDISCPILOT01</STUDYID>
    <DOMAIN>VS</DOMAIN>
    <USUBJID>CDISC004</USUBJID>
    <VSSEQ>103</VSSEQ>
    <VSTESTCD>TEMP</VSTESTCD>
    <VSTEST>Temperature</VSTEST>
    <VSPOS/>
    <VSORRES>97.6</VSORRES>
    <VSORRESU>F</VSORRESU>
    <VSSTRESC>36.44</VSSTRESC>
    <VSSTRESN>36.44</VSSTRESN>
    <VSSTRESU>C</VSSTRESU>
    <VSSTAT/>
    <VSLOC>ORAL CAVITY</VSLOC>
    <VSLOBXFL>Y</VSLOBXFL>
    <VSREPNUM/>
    <VISITNUM>3</VISITNUM>
    <VISIT>BASELINE</VISIT>
    <EPOCH>SCREENING</EPOCH>
    <VSDTC>2013-10-08</VSDTC>
    <VSDY>1</VSDY>
  </row>
  <row>
    <index>299</index>
    <STUDYID>CDISCPILOT01</STUDYID>
    <DOMAIN>VS</DOMAIN>
    <USUBJID>CDISC004</USUBJID>
    <VSSEQ>104</VSSEQ>
    <VSTESTCD>TEMP</VSTESTCD>
    <VSTEST>Temperature</VSTEST>
    <VSPOS/>
    <VSORRES>98.8</VSORRES>
    <VSORRESU>F</VSORRESU>
    <VSSTRESC>37.11</VSSTRESC>
    <VSSTRESN>37.11</VSSTRESN>
    <VSSTRESU>C</VSSTRESU>
    <VSSTAT/>
    <VSLOC>ORAL CAVITY</VSLOC>
    <VSLOBXFL/>
    <VSREPNUM/>
    <VISITNUM>4</VISITNUM>
    <VISIT>WEEK 2</VISIT>
    <EPOCH>TREATMENT</EPOCH>
    <VSDTC>2013-10-24</VSDTC>
    <VSDY>17</VSDY>
  </row>
  <row>
    <index>300</index>
    <STUDYID>CDISCPILOT01</STUDYID>
    <DOMAIN>VS</DOMAIN>
    <USUBJID>CDISC004</USUBJID>
    <VSSEQ>105</VSSEQ>
    <VSTESTCD>TEMP</VSTESTCD>
    <VSTEST>Temperature</VSTEST>
    <VSPOS/>
    <VSORRES>98.9</VSORRES>
    <VSORRESU>F</VSORRESU>
    <VSSTRESC>37.17</VSSTRESC>
    <VSSTRESN>37.17</VSSTRESN>
    <VSSTRESU>C</VSSTRESU>
    <VSSTAT/>
    <VSLOC>ORAL CAVITY</VSLOC>
    <VSLOBXFL/>
    <VSREPNUM/>
    <VISITNUM>5</VISITNUM>
    <VISIT>WEEK 4</VISIT>
    <EPOCH>TREATMENT</EPOCH>
    <VSDTC>2013-11-08</VSDTC>
    <VSDY>32</VSDY>
  </row>
  <row>
    <index>301</index>
    <STUDYID>CDISCPILOT01</STUDYID>
    <DOMAIN>VS</DOMAIN>
    <USUBJID>CDISC004</USUBJID>
    <VSSEQ>106</VSSEQ>
    <VSTESTCD>TEMP</VSTESTCD>
    <VSTEST>Temperature</VSTEST>
    <VSPOS/>
    <VSORRES>97.2</VSORRES>
    <VSORRESU>F</VSORRESU>
    <VSSTRESC>36.22</VSSTRESC>
    <VSSTRESN>36.22</VSSTRESN>
    <VSSTRESU>C</VSSTRESU>
    <VSSTAT/>
    <VSLOC>ORAL CAVITY</VSLOC>
    <VSLOBXFL/>
    <VSREPNUM/>
    <VISITNUM>7</VISITNUM>
    <VISIT>WEEK 6</VISIT>
    <EPOCH>TREATMENT</EPOCH>
    <VSDTC>2013-11-19</VSDTC>
    <VSDY>43</VSDY>
  </row>
  <row>
    <index>302</index>
    <STUDYID>CDISCPILOT01</STUDYID>
    <DOMAIN>VS</DOMAIN>
    <USUBJID>CDISC004</USUBJID>
    <VSSEQ>107</VSSEQ>
    <VSTESTCD>TEMP</VSTESTCD>
    <VSTEST>Temperature</VSTEST>
    <VSPOS/>
    <VSORRES>98.9</VSORRES>
    <VSORRESU>F</VSORRESU>
    <VSSTRESC>37.17</VSSTRESC>
    <VSSTRESN>37.17</VSSTRESN>
    <VSSTRESU>C</VSSTRESU>
    <VSSTAT/>
    <VSLOC>ORAL CAVITY</VSLOC>
    <VSLOBXFL/>
    <VSREPNUM/>
    <VISITNUM>8</VISITNUM>
    <VISIT>WEEK 8</VISIT>
    <EPOCH>TREATMENT</EPOCH>
    <VSDTC>2013-12-03</VSDTC>
    <VSDY>57</VSDY>
  </row>
  <row>
    <index>303</index>
    <STUDYID>CDISCPILOT01</STUDYID>
    <DOMAIN>VS</DOMAIN>
    <USUBJID>CDISC004</USUBJID>
    <VSSEQ>108</VSSEQ>
    <VSTESTCD>TEMP</VSTESTCD>
    <VSTEST>Temperature</VSTEST>
    <VSPOS/>
    <VSORRES>98.4</VSORRES>
    <VSORRESU>F</VSORRESU>
    <VSSTRESC>36.89</VSSTRESC>
    <VSSTRESN>36.89</VSSTRESN>
    <VSSTRESU>C</VSSTRESU>
    <VSSTAT/>
    <VSLOC>ORAL CAVITY</VSLOC>
    <VSLOBXFL/>
    <VSREPNUM/>
    <VISITNUM>9</VISITNUM>
    <VISIT>WEEK 12</VISIT>
    <EPOCH>TREATMENT</EPOCH>
    <VSDTC>2013-12-31</VSDTC>
    <VSDY>85</VSDY>
  </row>
  <row>
    <index>304</index>
    <STUDYID>CDISCPILOT01</STUDYID>
    <DOMAIN>VS</DOMAIN>
    <USUBJID>CDISC004</USUBJID>
    <VSSEQ>109</VSSEQ>
    <VSTESTCD>TEMP</VSTESTCD>
    <VSTEST>Temperature</VSTEST>
    <VSPOS/>
    <VSORRES>97.7</VSORRES>
    <VSORRESU>F</VSORRESU>
    <VSSTRESC>36.5</VSSTRESC>
    <VSSTRESN>36.5</VSSTRESN>
    <VSSTRESU>C</VSSTRESU>
    <VSSTAT/>
    <VSLOC>ORAL CAVITY</VSLOC>
    <VSLOBXFL/>
    <VSREPNUM/>
    <VISITNUM>10</VISITNUM>
    <VISIT>WEEK 16</VISIT>
    <EPOCH>TREATMENT</EPOCH>
    <VSDTC>2014-01-27</VSDTC>
    <VSDY>112</VSDY>
  </row>
  <row>
    <index>305</index>
    <STUDYID>CDISCPILOT01</STUDYID>
    <DOMAIN>VS</DOMAIN>
    <USUBJID>CDISC004</USUBJID>
    <VSSEQ>110</VSSEQ>
    <VSTESTCD>TEMP</VSTESTCD>
    <VSTEST>Temperature</VSTEST>
    <VSPOS/>
    <VSORRES>98.2</VSORRES>
    <VSORRESU>F</VSORRESU>
    <VSSTRESC>36.78</VSSTRESC>
    <VSSTRESN>36.78</VSSTRESN>
    <VSSTRESU>C</VSSTRESU>
    <VSSTAT/>
    <VSLOC>ORAL CAVITY</VSLOC>
    <VSLOBXFL/>
    <VSREPNUM/>
    <VISITNUM>11</VISITNUM>
    <VISIT>WEEK 20</VISIT>
    <EPOCH>TREATMENT</EPOCH>
    <VSDTC>2014-02-25</VSDTC>
    <VSDY>141</VSDY>
  </row>
  <row>
    <index>306</index>
    <STUDYID>CDISCPILOT01</STUDYID>
    <DOMAIN>VS</DOMAIN>
    <USUBJID>CDISC004</USUBJID>
    <VSSEQ>111</VSSEQ>
    <VSTESTCD>TEMP</VSTESTCD>
    <VSTEST>Temperature</VSTEST>
    <VSPOS/>
    <VSORRES>97.8</VSORRES>
    <VSORRESU>F</VSORRESU>
    <VSSTRESC>36.56</VSSTRESC>
    <VSSTRESN>36.56</VSSTRESN>
    <VSSTRESU>C</VSSTRESU>
    <VSSTAT/>
    <VSLOC>ORAL CAVITY</VSLOC>
    <VSLOBXFL/>
    <VSREPNUM/>
    <VISITNUM>12</VISITNUM>
    <VISIT>WEEK 24</VISIT>
    <EPOCH>TREATMENT</EPOCH>
    <VSDTC>2014-03-18</VSDTC>
    <VSDY>162</VSDY>
  </row>
  <row>
    <index>307</index>
    <STUDYID>CDISCPILOT01</STUDYID>
    <DOMAIN>VS</DOMAIN>
    <USUBJID>CDISC004</USUBJID>
    <VSSEQ>112</VSSEQ>
    <VSTESTCD>WEIGHT</VSTESTCD>
    <VSTEST>Weight</VSTEST>
    <VSPOS/>
    <VSORRES>123.0</VSORRES>
    <VSORRESU>LB</VSORRESU>
    <VSSTRESC>55.79</VSSTRESC>
    <VSSTRESN>55.79</VSSTRESN>
    <VSSTRESU>kg</VSSTRESU>
    <VSSTAT/>
    <VSLOC/>
    <VSLOBXFL/>
    <VSREPNUM/>
    <VISITNUM>1</VISITNUM>
    <VISIT>SCREENING 1</VISIT>
    <EPOCH>SCREENING</EPOCH>
    <VSDTC>2013-10-01</VSDTC>
    <VSDY>-7</VSDY>
  </row>
  <row>
    <index>308</index>
    <STUDYID>CDISCPILOT01</STUDYID>
    <DOMAIN>VS</DOMAIN>
    <USUBJID>CDISC004</USUBJID>
    <VSSEQ>113</VSSEQ>
    <VSTESTCD>WEIGHT</VSTESTCD>
    <VSTEST>Weight</VSTEST>
    <VSPOS/>
    <VSORRES>124.0</VSORRES>
    <VSORRESU>LB</VSORRESU>
    <VSSTRESC>56.25</VSSTRESC>
    <VSSTRESN>56.25</VSSTRESN>
    <VSSTRESU>kg</VSSTRESU>
    <VSSTAT/>
    <VSLOC/>
    <VSLOBXFL>Y</VSLOBXFL>
    <VSREPNUM/>
    <VISITNUM>3</VISITNUM>
    <VISIT>BASELINE</VISIT>
    <EPOCH>SCREENING</EPOCH>
    <VSDTC>2013-10-08</VSDTC>
    <VSDY>1</VSDY>
  </row>
  <row>
    <index>309</index>
    <STUDYID>CDISCPILOT01</STUDYID>
    <DOMAIN>VS</DOMAIN>
    <USUBJID>CDISC004</USUBJID>
    <VSSEQ>114</VSSEQ>
    <VSTESTCD>WEIGHT</VSTESTCD>
    <VSTEST>Weight</VSTEST>
    <VSPOS/>
    <VSORRES>124.0</VSORRES>
    <VSORRESU>LB</VSORRESU>
    <VSSTRESC>56.25</VSSTRESC>
    <VSSTRESN>56.25</VSSTRESN>
    <VSSTRESU>kg</VSSTRESU>
    <VSSTAT/>
    <VSLOC/>
    <VSLOBXFL/>
    <VSREPNUM/>
    <VISITNUM>4</VISITNUM>
    <VISIT>WEEK 2</VISIT>
    <EPOCH>TREATMENT</EPOCH>
    <VSDTC>2013-10-24</VSDTC>
    <VSDY>17</VSDY>
  </row>
  <row>
    <index>310</index>
    <STUDYID>CDISCPILOT01</STUDYID>
    <DOMAIN>VS</DOMAIN>
    <USUBJID>CDISC004</USUBJID>
    <VSSEQ>115</VSSEQ>
    <VSTESTCD>WEIGHT</VSTESTCD>
    <VSTEST>Weight</VSTEST>
    <VSPOS/>
    <VSORRES>124.0</VSORRES>
    <VSORRESU>LB</VSORRESU>
    <VSSTRESC>56.25</VSSTRESC>
    <VSSTRESN>56.25</VSSTRESN>
    <VSSTRESU>kg</VSSTRESU>
    <VSSTAT/>
    <VSLOC/>
    <VSLOBXFL/>
    <VSREPNUM/>
    <VISITNUM>5</VISITNUM>
    <VISIT>WEEK 4</VISIT>
    <EPOCH>TREATMENT</EPOCH>
    <VSDTC>2013-11-08</VSDTC>
    <VSDY>32</VSDY>
  </row>
  <row>
    <index>311</index>
    <STUDYID>CDISCPILOT01</STUDYID>
    <DOMAIN>VS</DOMAIN>
    <USUBJID>CDISC004</USUBJID>
    <VSSEQ>116</VSSEQ>
    <VSTESTCD>WEIGHT</VSTESTCD>
    <VSTEST>Weight</VSTEST>
    <VSPOS/>
    <VSORRES>125.0</VSORRES>
    <VSORRESU>LB</VSORRESU>
    <VSSTRESC>56.7</VSSTRESC>
    <VSSTRESN>56.7</VSSTRESN>
    <VSSTRESU>kg</VSSTRESU>
    <VSSTAT/>
    <VSLOC/>
    <VSLOBXFL/>
    <VSREPNUM/>
    <VISITNUM>7</VISITNUM>
    <VISIT>WEEK 6</VISIT>
    <EPOCH>TREATMENT</EPOCH>
    <VSDTC>2013-11-19</VSDTC>
    <VSDY>43</VSDY>
  </row>
  <row>
    <index>312</index>
    <STUDYID>CDISCPILOT01</STUDYID>
    <DOMAIN>VS</DOMAIN>
    <USUBJID>CDISC004</USUBJID>
    <VSSEQ>117</VSSEQ>
    <VSTESTCD>WEIGHT</VSTESTCD>
    <VSTEST>Weight</VSTEST>
    <VSPOS/>
    <VSORRES>124.0</VSORRES>
    <VSORRESU>LB</VSORRESU>
    <VSSTRESC>56.25</VSSTRESC>
    <VSSTRESN>56.25</VSSTRESN>
    <VSSTRESU>kg</VSSTRESU>
    <VSSTAT/>
    <VSLOC/>
    <VSLOBXFL/>
    <VSREPNUM/>
    <VISITNUM>8</VISITNUM>
    <VISIT>WEEK 8</VISIT>
    <EPOCH>TREATMENT</EPOCH>
    <VSDTC>2013-12-03</VSDTC>
    <VSDY>57</VSDY>
  </row>
  <row>
    <index>313</index>
    <STUDYID>CDISCPILOT01</STUDYID>
    <DOMAIN>VS</DOMAIN>
    <USUBJID>CDISC004</USUBJID>
    <VSSEQ>118</VSSEQ>
    <VSTESTCD>WEIGHT</VSTESTCD>
    <VSTEST>Weight</VSTEST>
    <VSPOS/>
    <VSORRES>124.0</VSORRES>
    <VSORRESU>LB</VSORRESU>
    <VSSTRESC>56.25</VSSTRESC>
    <VSSTRESN>56.25</VSSTRESN>
    <VSSTRESU>kg</VSSTRESU>
    <VSSTAT/>
    <VSLOC/>
    <VSLOBXFL/>
    <VSREPNUM/>
    <VISITNUM>9</VISITNUM>
    <VISIT>WEEK 12</VISIT>
    <EPOCH>TREATMENT</EPOCH>
    <VSDTC>2013-12-31</VSDTC>
    <VSDY>85</VSDY>
  </row>
  <row>
    <index>314</index>
    <STUDYID>CDISCPILOT01</STUDYID>
    <DOMAIN>VS</DOMAIN>
    <USUBJID>CDISC004</USUBJID>
    <VSSEQ>119</VSSEQ>
    <VSTESTCD>WEIGHT</VSTESTCD>
    <VSTEST>Weight</VSTEST>
    <VSPOS/>
    <VSORRES>125.0</VSORRES>
    <VSORRESU>LB</VSORRESU>
    <VSSTRESC>56.7</VSSTRESC>
    <VSSTRESN>56.7</VSSTRESN>
    <VSSTRESU>kg</VSSTRESU>
    <VSSTAT/>
    <VSLOC/>
    <VSLOBXFL/>
    <VSREPNUM/>
    <VISITNUM>10</VISITNUM>
    <VISIT>WEEK 16</VISIT>
    <EPOCH>TREATMENT</EPOCH>
    <VSDTC>2014-01-27</VSDTC>
    <VSDY>112</VSDY>
  </row>
  <row>
    <index>315</index>
    <STUDYID>CDISCPILOT01</STUDYID>
    <DOMAIN>VS</DOMAIN>
    <USUBJID>CDISC004</USUBJID>
    <VSSEQ>120</VSSEQ>
    <VSTESTCD>WEIGHT</VSTESTCD>
    <VSTEST>Weight</VSTEST>
    <VSPOS/>
    <VSORRES>126.0</VSORRES>
    <VSORRESU>LB</VSORRESU>
    <VSSTRESC>57.15</VSSTRESC>
    <VSSTRESN>57.15</VSSTRESN>
    <VSSTRESU>kg</VSSTRESU>
    <VSSTAT/>
    <VSLOC/>
    <VSLOBXFL/>
    <VSREPNUM/>
    <VISITNUM>11</VISITNUM>
    <VISIT>WEEK 20</VISIT>
    <EPOCH>TREATMENT</EPOCH>
    <VSDTC>2014-02-25</VSDTC>
    <VSDY>141</VSDY>
  </row>
  <row>
    <index>316</index>
    <STUDYID>CDISCPILOT01</STUDYID>
    <DOMAIN>VS</DOMAIN>
    <USUBJID>CDISC004</USUBJID>
    <VSSEQ>121</VSSEQ>
    <VSTESTCD>WEIGHT</VSTESTCD>
    <VSTEST>Weight</VSTEST>
    <VSPOS/>
    <VSORRES>126.0</VSORRES>
    <VSORRESU>LB</VSORRESU>
    <VSSTRESC>57.15</VSSTRESC>
    <VSSTRESN>57.15</VSSTRESN>
    <VSSTRESU>kg</VSSTRESU>
    <VSSTAT/>
    <VSLOC/>
    <VSLOBXFL/>
    <VSREPNUM/>
    <VISITNUM>12</VISITNUM>
    <VISIT>WEEK 24</VISIT>
    <EPOCH>TREATMENT</EPOCH>
    <VSDTC>2014-03-18</VSDTC>
    <VSDY>162</VSDY>
  </row>
  <row>
    <index>317</index>
    <STUDYID>CDISCPILOT01</STUDYID>
    <DOMAIN>VS</DOMAIN>
    <USUBJID>CDISC005</USUBJID>
    <VSSEQ>1</VSSEQ>
    <VSTESTCD>DIABP</VSTESTCD>
    <VSTEST>Diastolic Blood Pressure</VSTEST>
    <VSPOS>SUPINE</VSPOS>
    <VSORRES>72</VSORRES>
    <VSORRESU>mmHg</VSORRESU>
    <VSSTRESC>72</VSSTRESC>
    <VSSTRESN>72.0</VSSTRESN>
    <VSSTRESU>mmHg</VSSTRESU>
    <VSSTAT/>
    <VSLOC/>
    <VSLOBXFL/>
    <VSREPNUM>1.0</VSREPNUM>
    <VISITNUM>1</VISITNUM>
    <VISIT>SCREENING 1</VISIT>
    <EPOCH>SCREENING</EPOCH>
    <VSDTC>2013-01-22</VSDTC>
    <VSDY>-13</VSDY>
  </row>
  <row>
    <index>318</index>
    <STUDYID>CDISCPILOT01</STUDYID>
    <DOMAIN>VS</DOMAIN>
    <USUBJID>CDISC005</USUBJID>
    <VSSEQ>2</VSSEQ>
    <VSTESTCD>DIABP</VSTESTCD>
    <VSTEST>Diastolic Blood Pressure</VSTEST>
    <VSPOS>STANDING</VSPOS>
    <VSORRES>66</VSORRES>
    <VSORRESU>mmHg</VSORRESU>
    <VSSTRESC>66</VSSTRESC>
    <VSSTRESN>66.0</VSSTRESN>
    <VSSTRESU>mmHg</VSSTRESU>
    <VSSTAT/>
    <VSLOC/>
    <VSLOBXFL/>
    <VSREPNUM>2.0</VSREPNUM>
    <VISITNUM>1</VISITNUM>
    <VISIT>SCREENING 1</VISIT>
    <EPOCH>SCREENING</EPOCH>
    <VSDTC>2013-01-22</VSDTC>
    <VSDY>-13</VSDY>
  </row>
  <row>
    <index>319</index>
    <STUDYID>CDISCPILOT01</STUDYID>
    <DOMAIN>VS</DOMAIN>
    <USUBJID>CDISC005</USUBJID>
    <VSSEQ>3</VSSEQ>
    <VSTESTCD>DIABP</VSTESTCD>
    <VSTEST>Diastolic Blood Pressure</VSTEST>
    <VSPOS>STANDING</VSPOS>
    <VSORRES>66</VSORRES>
    <VSORRESU>mmHg</VSORRESU>
    <VSSTRESC>66</VSSTRESC>
    <VSSTRESN>66.0</VSSTRESN>
    <VSSTRESU>mmHg</VSSTRESU>
    <VSSTAT/>
    <VSLOC/>
    <VSLOBXFL/>
    <VSREPNUM>3.0</VSREPNUM>
    <VISITNUM>1</VISITNUM>
    <VISIT>SCREENING 1</VISIT>
    <EPOCH>SCREENING</EPOCH>
    <VSDTC>2013-01-22</VSDTC>
    <VSDY>-13</VSDY>
  </row>
  <row>
    <index>320</index>
    <STUDYID>CDISCPILOT01</STUDYID>
    <DOMAIN>VS</DOMAIN>
    <USUBJID>CDISC005</USUBJID>
    <VSSEQ>4</VSSEQ>
    <VSTESTCD>DIABP</VSTESTCD>
    <VSTEST>Diastolic Blood Pressure</VSTEST>
    <VSPOS>SUPINE</VSPOS>
    <VSORRES>56</VSORRES>
    <VSORRESU>mmHg</VSORRESU>
    <VSSTRESC>56</VSSTRESC>
    <VSSTRESN>56.0</VSSTRESN>
    <VSSTRESU>mmHg</VSSTRESU>
    <VSSTAT/>
    <VSLOC/>
    <VSLOBXFL/>
    <VSREPNUM>1.0</VSREPNUM>
    <VISITNUM>2</VISITNUM>
    <VISIT>SCREENING 2</VISIT>
    <EPOCH>SCREENING</EPOCH>
    <VSDTC>2013-02-02</VSDTC>
    <VSDY>-2</VSDY>
  </row>
  <row>
    <index>321</index>
    <STUDYID>CDISCPILOT01</STUDYID>
    <DOMAIN>VS</DOMAIN>
    <USUBJID>CDISC005</USUBJID>
    <VSSEQ>5</VSSEQ>
    <VSTESTCD>DIABP</VSTESTCD>
    <VSTEST>Diastolic Blood Pressure</VSTEST>
    <VSPOS>STANDING</VSPOS>
    <VSORRES>71</VSORRES>
    <VSORRESU>mmHg</VSORRESU>
    <VSSTRESC>71</VSSTRESC>
    <VSSTRESN>71.0</VSSTRESN>
    <VSSTRESU>mmHg</VSSTRESU>
    <VSSTAT/>
    <VSLOC/>
    <VSLOBXFL/>
    <VSREPNUM>2.0</VSREPNUM>
    <VISITNUM>2</VISITNUM>
    <VISIT>SCREENING 2</VISIT>
    <EPOCH>SCREENING</EPOCH>
    <VSDTC>2013-02-02</VSDTC>
    <VSDY>-2</VSDY>
  </row>
  <row>
    <index>322</index>
    <STUDYID>CDISCPILOT01</STUDYID>
    <DOMAIN>VS</DOMAIN>
    <USUBJID>CDISC005</USUBJID>
    <VSSEQ>6</VSSEQ>
    <VSTESTCD>DIABP</VSTESTCD>
    <VSTEST>Diastolic Blood Pressure</VSTEST>
    <VSPOS>STANDING</VSPOS>
    <VSORRES>74</VSORRES>
    <VSORRESU>mmHg</VSORRESU>
    <VSSTRESC>74</VSSTRESC>
    <VSSTRESN>74.0</VSSTRESN>
    <VSSTRESU>mmHg</VSSTRESU>
    <VSSTAT/>
    <VSLOC/>
    <VSLOBXFL/>
    <VSREPNUM>3.0</VSREPNUM>
    <VISITNUM>2</VISITNUM>
    <VISIT>SCREENING 2</VISIT>
    <EPOCH>SCREENING</EPOCH>
    <VSDTC>2013-02-02</VSDTC>
    <VSDY>-2</VSDY>
  </row>
  <row>
    <index>323</index>
    <STUDYID>CDISCPILOT01</STUDYID>
    <DOMAIN>VS</DOMAIN>
    <USUBJID>CDISC005</USUBJID>
    <VSSEQ>7</VSSEQ>
    <VSTESTCD>DIABP</VSTESTCD>
    <VSTEST>Diastolic Blood Pressure</VSTEST>
    <VSPOS>SUPINE</VSPOS>
    <VSORRES>63</VSORRES>
    <VSORRESU>mmHg</VSORRESU>
    <VSSTRESC>63</VSSTRESC>
    <VSSTRESN>63.0</VSSTRESN>
    <VSSTRESU>mmHg</VSSTRESU>
    <VSSTAT/>
    <VSLOC/>
    <VSLOBXFL/>
    <VSREPNUM>1.0</VSREPNUM>
    <VISITNUM>3</VISITNUM>
    <VISIT>BASELINE</VISIT>
    <EPOCH>SCREENING</EPOCH>
    <VSDTC>2013-02-04</VSDTC>
    <VSDY>1</VSDY>
  </row>
  <row>
    <index>324</index>
    <STUDYID>CDISCPILOT01</STUDYID>
    <DOMAIN>VS</DOMAIN>
    <USUBJID>CDISC005</USUBJID>
    <VSSEQ>8</VSSEQ>
    <VSTESTCD>DIABP</VSTESTCD>
    <VSTEST>Diastolic Blood Pressure</VSTEST>
    <VSPOS>STANDING</VSPOS>
    <VSORRES>60</VSORRES>
    <VSORRESU>mmHg</VSORRESU>
    <VSSTRESC>60</VSSTRESC>
    <VSSTRESN>60.0</VSSTRESN>
    <VSSTRESU>mmHg</VSSTRESU>
    <VSSTAT/>
    <VSLOC/>
    <VSLOBXFL/>
    <VSREPNUM>2.0</VSREPNUM>
    <VISITNUM>3</VISITNUM>
    <VISIT>BASELINE</VISIT>
    <EPOCH>SCREENING</EPOCH>
    <VSDTC>2013-02-04</VSDTC>
    <VSDY>1</VSDY>
  </row>
  <row>
    <index>325</index>
    <STUDYID>CDISCPILOT01</STUDYID>
    <DOMAIN>VS</DOMAIN>
    <USUBJID>CDISC005</USUBJID>
    <VSSEQ>9</VSSEQ>
    <VSTESTCD>DIABP</VSTESTCD>
    <VSTEST>Diastolic Blood Pressure</VSTEST>
    <VSPOS>STANDING</VSPOS>
    <VSORRES>65</VSORRES>
    <VSORRESU>mmHg</VSORRESU>
    <VSSTRESC>65</VSSTRESC>
    <VSSTRESN>65.0</VSSTRESN>
    <VSSTRESU>mmHg</VSSTRESU>
    <VSSTAT/>
    <VSLOC/>
    <VSLOBXFL>Y</VSLOBXFL>
    <VSREPNUM>3.0</VSREPNUM>
    <VISITNUM>3</VISITNUM>
    <VISIT>BASELINE</VISIT>
    <EPOCH>SCREENING</EPOCH>
    <VSDTC>2013-02-04</VSDTC>
    <VSDY>1</VSDY>
  </row>
  <row>
    <index>326</index>
    <STUDYID>CDISCPILOT01</STUDYID>
    <DOMAIN>VS</DOMAIN>
    <USUBJID>CDISC005</USUBJID>
    <VSSEQ>10</VSSEQ>
    <VSTESTCD>DIABP</VSTESTCD>
    <VSTEST>Diastolic Blood Pressure</VSTEST>
    <VSPOS>SUPINE</VSPOS>
    <VSORRES>66</VSORRES>
    <VSORRESU>mmHg</VSORRESU>
    <VSSTRESC>66</VSSTRESC>
    <VSSTRESN>66.0</VSSTRESN>
    <VSSTRESU>mmHg</VSSTRESU>
    <VSSTAT/>
    <VSLOC/>
    <VSLOBXFL/>
    <VSREPNUM>1.0</VSREPNUM>
    <VISITNUM>4</VISITNUM>
    <VISIT>WEEK 2</VISIT>
    <EPOCH>TREATMENT</EPOCH>
    <VSDTC>2013-02-19</VSDTC>
    <VSDY>16</VSDY>
  </row>
  <row>
    <index>327</index>
    <STUDYID>CDISCPILOT01</STUDYID>
    <DOMAIN>VS</DOMAIN>
    <USUBJID>CDISC005</USUBJID>
    <VSSEQ>11</VSSEQ>
    <VSTESTCD>DIABP</VSTESTCD>
    <VSTEST>Diastolic Blood Pressure</VSTEST>
    <VSPOS>STANDING</VSPOS>
    <VSORRES>56</VSORRES>
    <VSORRESU>mmHg</VSORRESU>
    <VSSTRESC>56</VSSTRESC>
    <VSSTRESN>56.0</VSSTRESN>
    <VSSTRESU>mmHg</VSSTRESU>
    <VSSTAT/>
    <VSLOC/>
    <VSLOBXFL/>
    <VSREPNUM>2.0</VSREPNUM>
    <VISITNUM>4</VISITNUM>
    <VISIT>WEEK 2</VISIT>
    <EPOCH>TREATMENT</EPOCH>
    <VSDTC>2013-02-19</VSDTC>
    <VSDY>16</VSDY>
  </row>
  <row>
    <index>328</index>
    <STUDYID>CDISCPILOT01</STUDYID>
    <DOMAIN>VS</DOMAIN>
    <USUBJID>CDISC005</USUBJID>
    <VSSEQ>12</VSSEQ>
    <VSTESTCD>DIABP</VSTESTCD>
    <VSTEST>Diastolic Blood Pressure</VSTEST>
    <VSPOS>STANDING</VSPOS>
    <VSORRES>66</VSORRES>
    <VSORRESU>mmHg</VSORRESU>
    <VSSTRESC>66</VSSTRESC>
    <VSSTRESN>66.0</VSSTRESN>
    <VSSTRESU>mmHg</VSSTRESU>
    <VSSTAT/>
    <VSLOC/>
    <VSLOBXFL/>
    <VSREPNUM>3.0</VSREPNUM>
    <VISITNUM>4</VISITNUM>
    <VISIT>WEEK 2</VISIT>
    <EPOCH>TREATMENT</EPOCH>
    <VSDTC>2013-02-19</VSDTC>
    <VSDY>16</VSDY>
  </row>
  <row>
    <index>329</index>
    <STUDYID>CDISCPILOT01</STUDYID>
    <DOMAIN>VS</DOMAIN>
    <USUBJID>CDISC005</USUBJID>
    <VSSEQ>13</VSSEQ>
    <VSTESTCD>DIABP</VSTESTCD>
    <VSTEST>Diastolic Blood Pressure</VSTEST>
    <VSPOS>SUPINE</VSPOS>
    <VSORRES>54</VSORRES>
    <VSORRESU>mmHg</VSORRESU>
    <VSSTRESC>54</VSSTRESC>
    <VSSTRESN>54.0</VSSTRESN>
    <VSSTRESU>mmHg</VSSTRESU>
    <VSSTAT/>
    <VSLOC/>
    <VSLOBXFL/>
    <VSREPNUM>1.0</VSREPNUM>
    <VISITNUM>5</VISITNUM>
    <VISIT>WEEK 4</VISIT>
    <EPOCH>TREATMENT</EPOCH>
    <VSDTC>2013-03-12</VSDTC>
    <VSDY>37</VSDY>
  </row>
  <row>
    <index>330</index>
    <STUDYID>CDISCPILOT01</STUDYID>
    <DOMAIN>VS</DOMAIN>
    <USUBJID>CDISC005</USUBJID>
    <VSSEQ>14</VSSEQ>
    <VSTESTCD>DIABP</VSTESTCD>
    <VSTEST>Diastolic Blood Pressure</VSTEST>
    <VSPOS>STANDING</VSPOS>
    <VSORRES>62</VSORRES>
    <VSORRESU>mmHg</VSORRESU>
    <VSSTRESC>62</VSSTRESC>
    <VSSTRESN>62.0</VSSTRESN>
    <VSSTRESU>mmHg</VSSTRESU>
    <VSSTAT/>
    <VSLOC/>
    <VSLOBXFL/>
    <VSREPNUM>2.0</VSREPNUM>
    <VISITNUM>5</VISITNUM>
    <VISIT>WEEK 4</VISIT>
    <EPOCH>TREATMENT</EPOCH>
    <VSDTC>2013-03-12</VSDTC>
    <VSDY>37</VSDY>
  </row>
  <row>
    <index>331</index>
    <STUDYID>CDISCPILOT01</STUDYID>
    <DOMAIN>VS</DOMAIN>
    <USUBJID>CDISC005</USUBJID>
    <VSSEQ>15</VSSEQ>
    <VSTESTCD>DIABP</VSTESTCD>
    <VSTEST>Diastolic Blood Pressure</VSTEST>
    <VSPOS>STANDING</VSPOS>
    <VSORRES>64</VSORRES>
    <VSORRESU>mmHg</VSORRESU>
    <VSSTRESC>64</VSSTRESC>
    <VSSTRESN>64.0</VSSTRESN>
    <VSSTRESU>mmHg</VSSTRESU>
    <VSSTAT/>
    <VSLOC/>
    <VSLOBXFL/>
    <VSREPNUM>3.0</VSREPNUM>
    <VISITNUM>5</VISITNUM>
    <VISIT>WEEK 4</VISIT>
    <EPOCH>TREATMENT</EPOCH>
    <VSDTC>2013-03-12</VSDTC>
    <VSDY>37</VSDY>
  </row>
  <row>
    <index>332</index>
    <STUDYID>CDISCPILOT01</STUDYID>
    <DOMAIN>VS</DOMAIN>
    <USUBJID>CDISC005</USUBJID>
    <VSSEQ>16</VSSEQ>
    <VSTESTCD>DIABP</VSTESTCD>
    <VSTEST>Diastolic Blood Pressure</VSTEST>
    <VSPOS>SUPINE</VSPOS>
